xe-kg5
Integration time [ms]:   1,571
Averaging Nr. [scans]: 100
Smoothing Nr. [pixels]: 0
Data measured with spectrometer [name]: 1403062U1
Wave   ;Sample   ;Dark     ;Reference;Scope Corrected for Dark
[nm]   ;[counts] ;[counts] ;[counts] 

 176,36;   15,750;   -1,680;   -4,940;17,43000
 176,71;   15,050;    0,970;    1,200;14,08000
 177,05;   10,630;    1,880;    1,620; 8,75000
 177,40;   16,600;    1,540;    1,160;15,06000
 177,74;    4,920;   -1,260;    1,630; 6,18000
 178,09;   12,800;    1,980;    0,700;10,82000
 178,43;   13,770;   -0,420;   -2,880;14,19000
 178,78;   12,660;    0,770;    7,430;11,89000
 179,12;   11,970;    4,190;    2,350; 7,78000
 179,47;   15,730;    0,330;   -1,290;15,40000
 179,81;    8,990;    5,060;    7,770; 3,93000
 180,16;   18,650;    5,230;   -2,990;13,42000
 180,50;    8,780;    4,680;   -1,580; 4,10000
 180,85;    9,170;   -1,360;   -0,790;10,53000
 181,19;   13,680;    2,540;   -3,310;11,14000
 181,54;   13,580;    2,570;   -0,550;11,01000
 181,88;   15,840;    4,730;   -6,480;11,11000
 182,23;   12,660;    3,980;   -3,500; 8,68000
 182,57;    7,750;   -6,510;    0,010;14,26000
 182,92;   15,220;   -1,850;    1,600;17,07000
 183,26;   12,510;   -1,710;    6,460;14,22000
 183,61;   15,340;   -2,030;    5,600;17,37000
 183,95;    5,230;   -3,570;    0,620; 8,80000
 184,30;   19,040;   -2,540;    2,620;21,58000
 184,64;   14,580;   -2,830;    0,860;17,41000
 184,99;   15,920;   -0,890;    1,700;16,81000
 185,33;    6,380;   -0,150;    1,640; 6,53000
 185,68;   12,380;    7,170;   -2,140; 5,21000
 186,02;   20,800;   -6,680;    8,470;27,48000
 186,37;   15,870;   -0,160;   -0,240;16,03000
 186,71;    7,400;    0,470;   -2,180; 6,93000
 187,06;   22,110;    2,400;    3,950;19,71000
 187,40;    9,260;   -1,030;    3,110;10,29000
 187,75;   18,130;    1,610;    6,000;16,52000
 188,09;   10,880;   -0,430;    2,940;11,31000
 188,44;   18,910;    0,610;    6,360;18,30000
 188,78;    5,800;    4,770;   -2,530; 1,03000
 189,13;   17,810;    3,820;    0,290;13,99000
 189,47;   11,180;   -3,790;    2,160;14,97000
 189,82;   16,270;    1,430;   -0,170;14,84000
 190,16;   18,100;    1,060;   -0,530;17,04000
 190,51;   23,030;   -0,130;   -2,300;23,16000
 190,85;   13,180;    3,490;   -3,190; 9,69000
 191,20;   18,640;   -0,470;   -3,450;19,11000
 191,54;   16,740;    1,380;   -5,110;15,36000
 191,88;   15,720;   -2,520;    3,760;18,24000
 192,23;    9,790;   -1,560;   -3,410;11,35000
 192,57;   16,540;   -1,950;    8,440;18,49000
 192,92;    9,090;    0,490;   -3,170; 8,60000
 193,26;   13,630;    1,130;    8,660;12,50000
 193,61;    8,230;    2,390;   -6,900; 5,84000
 193,95;   21,420;    1,080;    0,280;20,34000
 194,30;   14,570;   -1,620;   -4,090;16,19000
 194,64;   15,060;   -1,570;    4,160;16,63000
 194,99;   16,820;    0,850;    2,080;15,97000
 195,33;   13,480;    3,030;   -0,800;10,45000
 195,68;   11,880;   -0,230;    0,700;12,11000
 196,02;   15,840;   -2,150;    5,190;17,99000
 196,37;   15,920;   -1,000;    1,300;16,92000
 196,71;   17,740;    2,780;    4,470;14,96000
 197,05;    9,980;    2,320;   -2,210; 7,66000
 197,40;   22,720;    2,950;    3,920;19,77000
 197,74;   10,500;    2,460;   -1,110; 8,04000
 198,09;   16,300;    0,250;    5,080;16,05000
 198,43;   18,080;    4,920;    2,110;13,16000
 198,78;   11,010;   -4,480;    1,580;15,49000
 199,12;   14,100;   -4,470;    0,300;18,57000
 199,47;   17,350;   -2,580;    4,730;19,93000
 199,81;   14,280;    2,270;    2,230;12,01000
 200,16;   14,190;   -2,680;   -2,050;16,87000
 200,50;   13,520;   -3,510;   -0,260;17,03000
 200,84;   24,410;    3,240;    3,170;21,17000
 201,19;   21,060;    1,760;    1,890;19,30000
 201,53;   14,700;   -1,180;   -2,770;15,88000
 201,88;   14,130;   -1,230;    4,320;15,36000
 202,22;   12,440;    0,470;    0,800;11,97000
 202,57;   17,250;   -4,050;    6,390;21,30000
 202,91;   12,680;   -0,600;    2,090;13,28000
 203,26;   15,070;    3,360;    1,290;11,71000
 203,60;   16,770;    1,750;    5,630;15,02000
 203,94;   24,550;    0,190;   -1,070;24,36000
 204,29;   21,530;    3,140;   -0,730;18,39000
 204,63;    9,390;    5,010;   -0,090; 4,38000
 204,98;   20,510;   -4,500;    6,600;25,01000
 205,32;   13,530;    6,260;   -1,270; 7,27000
 205,67;   19,750;    0,300;    4,650;19,45000
 206,01;   14,110;   -3,870;    2,660;17,98000
 206,36;   14,420;   -3,910;    7,150;18,33000
 206,70;   15,270;    0,840;    4,990;14,43000
 207,04;   18,180;   -8,930;    1,580;27,11000
 207,39;   11,980;   -9,930;   -2,780;21,91000
 207,73;   18,020;    5,020;    2,870;13,00000
 208,08;   11,740;   -2,250;    0,280;13,99000
 208,42;   15,480;   -3,960;    0,400;19,44000
 208,77;   15,120;   -6,680;    1,510;21,80000
 209,11;   22,330;   -1,400;    4,410;23,73000
 209,45;   16,070;   -1,610;   -6,000;17,68000
 209,80;   18,170;   -2,640;    2,210;20,81000
 210,14;   17,400;   -1,610;    2,850;19,01000
 210,49;   16,420;    6,300;    0,830;10,12000
 210,83;   14,180;    1,110;   -0,500;13,07000
 211,18;   24,090;   -0,550;    1,840;24,64000
 211,52;   15,520;   -7,530;   -2,050;23,05000
 211,86;   16,630;    1,350;   -0,760;15,28000
 212,21;   17,730;    1,580;   -0,850;16,15000
 212,55;   18,670;    1,260;    0,350;17,41000
 212,90;   16,230;   -1,840;    5,690;18,07000
 213,24;   28,590;   -5,320;   -0,200;33,91000
 213,59;   23,510;    3,110;    1,370;20,40000
 213,93;   16,020;    0,180;   -2,980;15,84000
 214,27;   21,370;    2,720;   -1,450;18,65000
 214,62;   14,940;    2,770;    4,640;12,17000
 214,96;   14,350;    5,600;    0,500; 8,75000
 215,31;   20,220;   -0,510;    0,660;20,73000
 215,65;   16,450;   -3,300;    0,530;19,75000
 216,00;   23,630;    0,660;    3,700;22,97000
 216,34;    9,770;   -2,680;    7,630;12,45000
 216,68;   18,980;   -0,360;    2,550;19,34000
 217,03;   11,720;    1,730;   -2,950; 9,99000
 217,37;   22,020;    1,830;    7,880;20,19000
 217,72;   15,760;   -1,150;   -3,170;16,91000
 218,06;   16,180;    3,880;    5,030;12,30000
 218,40;   12,520;    2,050;   -2,040;10,47000
 218,75;   22,000;   -2,330;    2,830;24,33000
 219,09;   15,050;   -2,310;    4,950;17,36000
 219,44;   20,380;    2,650;    1,680;17,73000
 219,78;   12,070;   -0,370;    0,300;12,44000
 220,12;   21,900;    0,020;   -2,360;21,88000
 220,47;   15,130;   -0,210;    0,160;15,34000
 220,81;   19,530;    1,770;    1,970;17,76000
 221,16;   10,950;    6,790;    2,430; 4,16000
 221,50;   26,480;   -3,330;    0,030;29,81000
 221,84;   17,790;   -0,920;    4,400;18,71000
 222,19;   18,760;    2,190;   -1,310;16,57000
 222,53;   17,140;    0,080;    7,310;17,06000
 222,88;   18,060;   -0,380;    8,230;18,44000
 223,22;   13,420;    7,170;   -4,200; 6,25000
 223,56;   19,730;    4,630;   11,460;15,10000
 223,91;   14,420;   -1,850;   -0,780;16,27000
 224,25;   18,140;    5,590;    2,120;12,55000
 224,60;   17,880;    0,510;   -1,480;17,37000
 224,94;   22,420;   -1,020;    3,330;23,44000
 225,28;   20,190;   -0,270;   -1,170;20,46000
 225,63;   21,410;   -6,880;    5,740;28,29000
 225,97;   13,630;   -2,360;    1,330;15,99000
 226,32;   17,910;   -4,330;   -0,260;22,24000
 226,66;   14,780;   -7,350;    5,090;22,13000
 227,00;   19,250;    0,790;    3,420;18,46000
 227,35;   18,700;   -0,040;   -2,020;18,74000
 227,69;   21,640;   -2,440;    1,910;24,08000
 228,04;   16,020;   -3,320;   -0,610;19,34000
 228,38;   23,490;   -6,930;   -5,470;30,42000
 228,72;   16,240;    4,010;   -3,900;12,23000
 229,07;   21,580;    1,090;    0,630;20,49000
 229,41;   17,590;    0,690;   -0,140;16,90000
 229,75;   17,220;    5,250;    4,380;11,97000
 230,10;   13,510;    1,150;   -0,170;12,36000
 230,44;   19,780;    3,190;    7,890;16,59000
 230,79;   22,070;   -2,320;   -0,360;24,39000
 231,13;   18,740;    0,500;    4,010;18,24000
 231,47;   21,410;    5,170;    3,080;16,24000
 231,82;   26,030;    4,750;    6,400;21,28000
 232,16;   18,720;    1,060;    1,390;17,66000
 232,50;   17,030;    1,020;    1,650;16,01000
 232,85;   13,540;   -2,000;   -2,240;15,54000
 233,19;   23,820;    0,280;    6,400;23,54000
 233,54;   21,160;   -1,900;    9,110;23,06000
 233,88;   15,090;    5,730;   -0,630; 9,36000
 234,22;   19,960;    3,570;    3,200;16,39000
 234,57;   19,490;    1,000;   -0,350;18,49000
 234,91;   18,860;   -1,010;    3,130;19,87000
 235,25;   11,830;    0,820;    0,820;11,01000
 235,60;   18,860;    0,090;    4,420;18,77000
 235,94;   16,480;   -4,220;   -1,930;20,70000
 236,29;   19,530;   -6,810;   -3,820;26,34000
 236,63;   23,890;    1,680;   -0,440;22,21000
 236,97;   13,270;    3,160;    4,160;10,11000
 237,32;   26,650;    3,410;   -3,280;23,24000
 237,66;   15,840;    7,420;    7,650; 8,42000
 238,00;   20,040;    1,770;    0,290;18,27000
 238,35;   20,700;   -2,610;   -7,850;23,31000
 238,69;   19,980;    5,740;   29,260;14,24000
 239,03;   14,420;   -0,120;   65,740;14,54000
 239,38;   16,530;   -2,220;    3,060;18,75000
 239,72;   16,750;   -3,180;    0,310;19,93000
 240,06;   20,770;   -2,940;    2,810;23,71000
 240,41;   13,540;    0,670;    0,290;12,87000
 240,75;   23,510;    5,070;    2,750;18,44000
 241,10;   20,960;   -7,380;    4,230;28,34000
 241,44;   14,780;    3,020;   -0,270;11,76000
 241,78;   13,610;   -6,130;    3,450;19,74000
 242,13;   20,800;   -3,590;   -2,120;24,39000
 242,47;   20,420;    4,880;   -4,250;15,54000
 242,81;   20,500;    2,220;    4,680;18,28000
 243,16;   15,900;   -1,210;    1,580;17,11000
 243,50;   21,490;    0,500;   -2,120;20,99000
 243,84;   18,050;   -0,710;   -1,390;18,76000
 244,19;   21,440;    5,840;    1,600;15,60000
 244,53;   17,140;    2,820;   -0,360;14,32000
 244,87;   24,650;    2,190;    6,880;22,46000
 245,22;   18,620;    0,520;    1,260;18,10000
 245,56;   25,100;   -1,040;   -5,670;26,14000
 245,90;   13,400;   -2,040;   -2,740;15,44000
 246,25;   30,530;   -0,790;    6,490;31,32000
 246,59;   16,770;    2,590;   -3,700;14,18000
 246,93;   21,840;   -2,460;    2,990;24,30000
 247,28;   21,580;    2,960;    6,300;18,62000
 247,62;   24,120;   -3,350;   -1,330;27,47000
 247,96;   21,640;   -1,370;    3,460;23,01000
 248,31;   26,390;    4,640;    0,160;21,75000
 248,65;   14,620;   -2,480;    3,570;17,10000
 248,99;   19,030;    2,980;    2,260;16,05000
 249,34;   12,130;    1,680;   -0,370;10,45000
 249,68;   24,210;   -2,100;   -2,150;26,31000
 250,02;   21,910;    0,800;    0,690;21,11000
 250,37;   26,760;   -3,820;    4,070;30,58000
 250,71;   19,390;    8,080;    0,790;11,31000
 251,05;   16,440;   -8,510;    0,850;24,95000
 251,40;   19,400;    0,870;    3,460;18,53000
 251,74;   14,910;    6,920;    1,420; 7,99000
 252,08;   24,380;   -3,860;    1,190;28,24000
 252,43;   21,750;    4,350;    3,090;17,40000
 252,77;   24,030;   -3,840;   -0,850;27,87000
 253,11;   21,810;   -1,730;   -1,730;23,54000
 253,46;   24,020;    3,530;    3,910;20,49000
 253,80;   22,440;   -1,400;    7,110;23,84000
 254,14;   22,280;    3,490;   -3,160;18,79000
 254,49;   22,810;   -1,050;    0,370;23,86000
 254,83;   19,780;   -7,270;    6,060;27,05000
 255,17;   22,380;   -1,230;    0,870;23,61000
 255,52;   22,710;   -5,730;    3,320;28,44000
 255,86;   14,880;    0,010;    3,840;14,87000
 256,20;   18,750;   -0,670;    2,190;19,42000
 256,55;   23,200;    3,140;    6,800;20,06000
 256,89;   13,910;    1,680;   -0,420;12,23000
 257,23;   21,980;   -3,410;    4,740;25,39000
 257,57;   18,250;    3,540;    0,680;14,71000
 257,92;   24,340;    4,890;    9,660;19,45000
 258,26;   18,890;   -4,060;    9,410;22,95000
 258,60;   27,040;    2,480;    0,980;24,56000
 258,95;   17,670;    1,570;    1,980;16,10000
 259,29;   24,250;    3,670;    1,870;20,58000
 259,63;   18,570;   -4,430;    2,470;23,00000
 259,98;   21,820;   -2,210;    4,950;24,03000
 260,32;   17,830;    3,100;    3,060;14,73000
 260,66;   17,400;   -2,500;   -0,240;19,90000
 261,01;   18,320;    2,940;   -0,910;15,38000
 261,35;   19,620;   -3,890;    2,840;23,51000
 261,69;   16,960;   -2,560;    2,780;19,52000
 262,03;   15,320;   -0,190;    1,400;15,51000
 262,38;   18,550;    3,470;   -3,040;15,08000
 262,72;   23,590;    1,410;    1,950;22,18000
 263,06;   20,350;    0,100;    3,560;20,25000
 263,41;   26,930;   -1,350;    2,600;28,28000
 263,75;   19,240;   -5,040;    2,850;24,28000
 264,09;   17,700;   -4,180;   -0,340;21,88000
 264,44;   27,340;    3,310;   -0,250;24,03000
 264,78;   19,960;   -1,850;   -1,930;21,81000
 265,12;   19,640;    4,960;    5,230;14,68000
 265,46;   21,200;    0,600;    2,600;20,60000
 265,81;   24,520;    3,190;    1,280;21,33000
 266,15;   18,840;    4,770;    4,320;14,07000
 266,49;   14,660;    5,660;    3,370; 9,00000
 266,84;   23,670;    0,280;    2,340;23,39000
 267,18;   15,820;   -6,410;    0,120;22,23000
 267,52;   20,800;    1,350;   -0,950;19,45000
 267,86;   20,130;   -1,210;    0,400;21,34000
 268,21;   25,480;   -1,260;    4,770;26,74000
 268,55;   18,230;   -1,130;    1,950;19,36000
 268,89;   22,320;    2,400;    8,760;19,92000
 269,24;   25,190;   -1,920;   -1,610;27,11000
 269,58;   22,670;    5,420;    1,950;17,25000
 269,92;   22,580;    2,840;   -3,810;19,74000
 270,26;   23,280;    5,060;    5,370;18,22000
 270,61;   17,100;   -0,230;    2,330;17,33000
 270,95;   24,230;    6,130;    2,940;18,10000
 271,29;   22,760;   -1,890;   -4,650;24,65000
 271,64;   20,020;   -4,970;   -0,820;24,99000
 271,98;   18,460;    3,740;    5,320;14,72000
 272,32;   27,610;    0,780;    2,520;26,83000
 272,66;   23,710;   -4,700;    3,640;28,41000
 273,01;   21,670;   -4,680;    3,890;26,35000
 273,35;   20,290;   -8,380;   -2,080;28,67000
 273,69;   19,270;   -5,160;    7,650;24,43000
 274,03;   17,270;   -0,120;   -0,080;17,39000
 274,38;   19,700;   -0,040;    2,800;19,74000
 274,72;   13,790;   -2,720;    0,930;16,51000
 275,06;   17,510;   -0,860;    4,260;18,37000
 275,40;   19,190;   -4,350;    2,190;23,54000
 275,75;   21,790;   -2,680;   -1,670;24,47000
 276,09;   18,620;   -1,000;    2,750;19,62000
 276,43;   25,220;    2,560;    3,420;22,66000
 276,78;   14,940;   -0,680;    3,970;15,62000
 277,12;   26,810;   -2,700;    4,080;29,51000
 277,46;   21,310;    4,040;   -1,400;17,27000
 277,80;   17,140;   -3,990;    2,660;21,13000
 278,15;   22,040;    0,790;    0,990;21,25000
 278,49;   20,760;    2,880;    3,910;17,88000
 278,83;   19,130;    1,330;   -0,830;17,80000
 279,17;   25,910;    2,210;    7,910;23,70000
 279,52;   25,360;   -7,710;    0,670;33,07000
 279,86;   23,380;   -1,780;    3,730;25,16000
 280,20;   21,620;   -0,930;   -0,050;22,55000
 280,54;   27,660;    0,750;    4,110;26,91000
 280,89;   17,070;    2,780;    2,930;14,29000
 281,23;   22,010;   -2,950;    7,110;24,96000
 281,57;   22,470;   -3,420;    3,900;25,89000
 281,91;   21,160;    3,190;    9,620;17,97000
 282,26;   20,850;    0,600;   -0,770;20,25000
 282,60;   23,790;    0,530;    3,260;23,26000
 282,94;   21,840;   -4,930;   -6,700;26,77000
 283,28;   24,030;    0,510;    8,220;23,52000
 283,63;   24,460;   -1,720;    3,300;26,18000
 283,97;   27,540;    4,800;   -2,370;22,74000
 284,31;   17,460;   -2,080;    1,490;19,54000
 284,65;   21,900;   -1,330;    0,930;23,23000
 285,00;   20,940;   -0,720;    0,170;21,66000
 285,34;   25,390;   -5,460;    2,250;30,85000
 285,68;   25,260;    5,930;    4,600;19,33000
 286,02;   29,060;    2,050;    2,930;27,01000
 286,37;   20,720;    1,840;   -2,100;18,88000
 286,71;   31,220;    0,130;    9,880;31,09000
 287,05;   23,230;    4,750;    0,770;18,48000
 287,39;   27,540;   -2,940;    3,340;30,48000
 287,73;   19,880;    1,660;   -0,150;18,22000
 288,08;   27,630;    8,490;    4,200;19,14000
 288,42;   23,600;   -2,840;   -0,810;26,44000
 288,76;   29,280;   -0,210;    1,980;29,49000
 289,10;   26,000;   -1,230;   -2,180;27,23000
 289,45;   32,080;    1,800;    2,290;30,28000
 289,79;   23,370;    0,110;    2,270;23,26000
 290,13;   24,270;   -2,760;    7,880;27,03000
 290,47;   27,170;    0,320;   -1,950;26,85000
 290,82;   31,470;    2,800;    3,070;28,67000
 291,16;   21,600;    2,370;   -1,830;19,23000
 291,50;   32,210;   -1,740;   -0,810;33,95000
 291,84;   24,160;    6,150;   -1,240;18,01000
 292,18;   34,030;    2,720;    7,510;31,31000
 292,53;   31,650;   -3,380;    2,270;35,03000
 292,87;   26,040;   -8,210;    6,240;34,25000
 293,21;   25,910;   -6,380;   -3,400;32,29000
 293,55;   26,950;    0,060;    7,800;26,89000
 293,90;   33,880;    2,300;    1,580;31,58000
 294,24;   29,390;    0,430;    2,360;28,96000
 294,58;   26,260;    4,300;   -2,350;21,96000
 294,92;   36,170;   -1,710;    4,480;37,88000
 295,26;   33,670;   -3,490;   -0,060;37,16000
 295,61;   34,370;    4,230;    2,590;30,14000
 295,95;   30,470;    4,020;    2,900;26,45000
 296,29;   45,390;    9,360;    2,790;36,03000
 296,63;   50,820;    3,120;    1,350;47,70000
 296,97;   48,390;    0,130;    3,880;48,26000
 297,32;   47,340;   -4,260;   -4,280;51,60000
 297,66;   52,040;    4,560;   -0,620;47,48000
 298,00;   46,980;    1,400;    3,450;45,58000
 298,34;   57,210;   -2,880;    0,800;60,09000
 298,69;   56,120;    3,150;    2,400;52,97000
 299,03;   60,550;    0,610;    1,820;59,94000
 299,37;   64,940;   -3,290;   -0,940;68,23000
 299,71;   70,220;    0,480;   -1,460;69,74000
 300,05;   71,390;    1,360;   -0,590;70,03000
 300,40;   78,230;   -2,810;    5,780;81,04000
 300,74;   81,650;    0,620;    3,080;81,03000
 301,08;   83,230;   -2,410;    9,750;85,64000
 301,42;   92,290;    0,030;    0,430;92,26000
 301,76;   91,050;   -0,040;    3,560;91,09000
 302,11;   98,720;    2,500;    1,560;96,22000
 302,45;  104,260;    6,460;    3,060;97,80000
 302,79;  114,190;    7,480;   -0,070;106,71000
 303,13;  116,840;   -1,000;    0,920;117,84000
 303,47;  119,530;   -4,150;    2,590;123,68000
 303,81;  118,130;   -0,860;    6,370;118,99000
 304,16;  132,100;   -0,610;    0,950;132,71000
 304,50;  140,290;   -5,660;    5,220;145,95000
 304,84;  141,040;    6,440;    3,500;134,60000
 305,18;  150,990;   -1,250;    3,990;152,24000
 305,52;  160,520;    2,210;    0,240;158,31000
 305,87;  165,020;    0,610;   -3,520;164,41000
 306,21;  169,410;   -3,150;   -4,610;172,56000
 306,55;  179,060;   -1,600;    2,670;180,66000
 306,89;  191,760;    1,130;    2,350;190,63000
 307,23;  205,130;    1,720;    1,320;203,41000
 307,58;  201,210;   -0,810;    1,880;202,02000
 307,92;  212,420;   -0,410;    4,640;212,83000
 308,26;  221,600;   -6,760;   -1,550;228,36000
 308,60;  227,470;   -4,440;    1,660;231,91000
 308,94;  237,750;   -2,500;   -0,860;240,25000
 309,28;  254,530;    4,170;    3,500;250,36000
 309,63;  252,620;   -3,270;   -2,560;255,89000
 309,97;  272,320;   -2,380;   10,570;274,70000
 310,31;  275,590;    1,040;   -0,100;274,55000
 310,65;  284,070;   -0,430;    3,820;284,50000
 310,99;  296,000;   -0,530;    2,240;296,53000
 311,33;  299,990;   -3,690;    2,420;303,68000
 311,68;  317,750;   -1,170;    0,600;318,92000
 312,02;  317,310;    1,480;  -15,330;315,83000
 312,36;  331,400;   -1,200;   23,440;332,60000
 312,70;  337,360;    0,750;   61,440;336,61000
 313,04;  348,620;    1,470;    1,810;347,15000
 313,38;  350,990;   -5,760;   -3,880;356,75000
 313,73;  361,490;   -5,440;   -2,470;366,93000
 314,07;  373,530;    0,820;    5,190;372,71000
 314,41;  378,690;    1,040;    4,040;377,65000
 314,75;  391,830;    4,640;    5,810;387,19000
 315,09;  387,520;    0,590;    1,100;386,93000
 315,43;  388,510;    3,330;    5,490;385,18000
 315,78;  400,220;   -3,260;    0,860;403,48000
 316,12;  406,430;    5,460;    5,920;400,97000
 316,46;  416,240;    3,990;    5,510;412,25000
 316,80;  423,040;   -0,960;    1,790;424,00000
 317,14;  428,420;   -8,650;    3,890;437,07000
 317,48;  434,700;   -3,810;    3,190;438,51000
 317,83;  438,510;    2,450;   -3,050;436,06000
 318,17;  458,640;   -1,790;    1,620;460,43000
 318,51;  452,830;    3,310;    1,140;449,52000
 318,85;  458,970;   -3,960;   -1,100;462,93000
 319,19;  479,690;   -3,320;   -3,990;483,01000
 319,53;  482,800;   -0,780;    9,450;483,58000
 319,87;  484,000;    1,810;   -3,650;482,19000
 320,22;  499,320;    4,530;    8,080;494,79000
 320,56;  502,140;   -7,350;    3,190;509,49000
 320,90;  519,500;    1,730;    7,300;517,77000
 321,24;  533,780;   -2,710;    8,820;536,49000
 321,58;  542,300;    7,080;   -2,580;535,22000
 321,92;  551,830;   -3,300;   -1,490;555,13000
 322,26;  563,210;    6,770;   -3,760;556,44000
 322,61;  563,640;   -2,430;    3,520;566,07000
 322,95;  582,910;    2,560;    0,190;580,35000
 323,29;  590,040;   -4,920;    2,140;594,96000
 323,63;  604,680;    0,880;    1,200;603,80000
 323,97;  600,540;    5,660;    2,870;594,88000
 324,31;  626,390;   -3,270;    0,730;629,66000
 324,65;  652,320;    3,730;    5,680;648,59000
 325,00;  653,610;    3,470;    2,660;650,14000
 325,34;  682,220;   -4,250;   -0,430;686,47000
 325,68;  689,910;    2,130;   -0,890;687,78000
 326,02;  701,460;    1,420;    4,820;700,04000
 326,36;  727,110;    0,500;    3,430;726,61000
 326,70;  751,980;    7,770;   -1,680;744,21000
 327,04;  788,820;    1,000;    4,730;787,82000
 327,38;  810,120;    1,350;    2,400;808,77000
 327,73;  849,500;    6,200;    4,930;843,30000
 328,07;  849,590;   -1,690;    3,290;851,28000
 328,41;  887,550;   -3,770;    1,050;891,32000
 328,75;  940,990;    8,640;    1,850;932,35000
 329,09;  959,110;   -5,820;    1,130;964,93000
 329,43;  997,400;    5,690;    0,440;991,71000
 329,77; 1025,040;   -2,590;    3,080;1027,63000
 330,11; 1065,270;   -0,790;   -2,830;1066,06000
 330,46; 1108,990;   -1,830;    3,940;1110,82000
 330,80; 1145,560;   -4,710;   -1,490;1150,27000
 331,14; 1213,710;    1,780;    2,840;1211,93000
 331,48; 1253,500;   -3,020;    1,950;1256,52000
 331,82; 1316,280;    3,680;    5,330;1312,60000
 332,16; 1363,490;    3,190;   -5,490;1360,30000
 332,50; 1438,760;   -3,640;    0,370;1442,40000
 332,84; 1487,460;   -3,480;    4,550;1490,94000
 333,18; 1558,380;   -0,850;    3,170;1559,23000
 333,53; 1611,740;   -0,010;   -1,670;1611,75000
 333,87; 1714,260;    0,240;    4,960;1714,02000
 334,21; 1767,460;   -2,880;    4,440;1770,34000
 334,55; 1831,830;   -4,410;    2,210;1836,24000
 334,89; 1934,240;   -4,070;    2,760;1938,31000
 335,23; 2025,390;    4,300;   -0,890;2021,09000
 335,57; 2109,220;   -2,270;    2,290;2111,49000
 335,91; 2244,080;    3,290;    4,710;2240,79000
 336,25; 2277,300;   -2,780;    4,970;2280,08000
 336,60; 2382,530;    3,700;    1,540;2378,83000
 336,94; 2513,100;   -4,860;   -0,280;2517,96000
 337,28; 2674,020;    9,840;    2,850;2664,18000
 337,62; 2737,650;    0,810;   -0,390;2736,84000
 337,96; 2844,180;   -6,070;    2,040;2850,25000
 338,30; 2990,130;    3,380;    1,880;2986,75000
 338,64; 3109,470;   -5,300;    6,570;3114,77000
 338,98; 3171,080;   -7,810;   -2,000;3178,89000
 339,32; 3477,570;    3,680;    0,460;3473,89000
 339,66; 3431,450;    3,330;   -0,800;3428,12000
 340,01; 3626,970;    1,530;    1,760;3625,44000
 340,35; 3755,030;    2,080;   -0,530;3752,95000
 340,69; 3885,000;   -4,870;    3,300;3889,87000
 341,03; 3983,010;    2,890;    2,970;3980,12000
 341,37; 4130,970;   -6,630;    6,070;4137,60000
 341,71; 4253,150;   -7,390;   -3,260;4260,54000
 342,05; 4344,600;    2,170;    2,520;4342,43000
 342,39; 4571,530;    0,590;    1,510;4570,94000
 342,73; 4600,300;   -2,950;    2,250;4603,25000
 343,07; 4702,820;   -8,720;   -2,210;4711,54000
 343,41; 4897,310;    3,490;    1,990;4893,82000
 343,75; 5105,020;    0,740;   -5,070;5104,28000
 344,10; 5129,580;   -3,520;   -0,490;5133,10000
 344,44; 5253,310;   -5,010;    4,160;5258,32000
 344,78; 5257,610;   -0,230;    3,320;5257,84000
 345,12; 5517,050;    4,210;   -2,100;5512,84000
 345,46; 5649,450;    2,200;    3,260;5647,25000
 345,80; 5626,280;    0,420;    4,200;5625,86000
 346,14; 5809,170;    4,520;    7,400;5804,65000
 346,48; 5849,550;    3,980;    7,670;5845,57000
 346,82; 6064,350;    2,730;    2,900;6061,62000
 347,16; 6100,670;   -0,470;   -0,380;6101,14000
 347,50; 6072,380;   -3,890;    4,620;6076,27000
 347,84; 6244,750;   -0,660;   -0,340;6245,41000
 348,18; 6255,120;    6,290;    0,100;6248,83000
 348,53; 6265,610;   -0,660;    7,220;6266,27000
 348,87; 6417,710;   -0,620;    4,640;6418,33000
 349,21; 6481,100;   -1,280;    1,010;6482,38000
 349,55; 6473,500;   -0,130;   -1,310;6473,63000
 349,89; 6475,730;    2,840;    3,290;6472,89000
 350,23; 6503,320;    1,050;   -0,650;6502,27000
 350,57; 6765,090;    5,770;    1,280;6759,32000
 350,91; 6599,410;    6,230;    2,260;6593,18000
 351,25; 6728,030;   -0,350;    2,890;6728,38000
 351,59; 6724,590;    0,170;    8,760;6724,42000
 351,93; 6697,970;    0,220;    3,960;6697,75000
 352,27; 6682,700;    4,960;    5,210;6677,74000
 352,61; 6843,800;   -1,330;    2,680;6845,13000
 352,95; 6753,310;    2,360;    7,500;6750,95000
 353,29; 6811,840;    2,710;    0,070;6809,13000
 353,63; 6838,950;    0,880;   -3,240;6838,07000
 353,98; 6801,010;   -3,380;   -1,200;6804,39000
 354,32; 6821,520;    0,840;   -3,600;6820,68000
 354,66; 6798,330;    3,110;   -0,790;6795,22000
 355,00; 6850,960;   -1,260;    4,110;6852,22000
 355,34; 6695,090;    0,850;   -0,090;6694,24000
 355,68; 6825,400;    1,590;   -3,200;6823,81000
 356,02; 6680,920;   -0,990;   -0,450;6681,91000
 356,36; 6681,770;   -0,490;    9,920;6682,26000
 356,70; 6696,610;   -2,210;    3,200;6698,82000
 357,04; 6723,060;    1,480;    4,710;6721,58000
 357,38; 6576,450;   -2,860;    0,020;6579,31000
 357,72; 6761,810;    1,800;    5,560;6760,01000
 358,06; 6704,220;    1,600;   -2,100;6702,62000
 358,40; 6625,730;    0,860;   -2,150;6624,87000
 358,74; 6654,560;   -0,940;    4,930;6655,50000
 359,08; 6623,070;    7,070;    3,100;6616,00000
 359,42; 6549,270;   -3,670;    0,930;6552,94000
 359,76; 6797,220;    1,740;    7,260;6795,48000
 360,10; 6664,240;    0,780;   -0,030;6663,46000
 360,44; 6585,330;    6,370;   -0,080;6578,96000
 360,78; 6593,510;   -0,730;   -0,890;6594,24000
 361,12; 6698,760;    2,920;    2,740;6695,84000
 361,46; 6638,530;   -0,940;    2,110;6639,47000
 361,80; 6623,810;    8,340;   -1,090;6615,47000
 362,15; 6583,130;   -3,410;   -2,300;6586,54000
 362,49; 6709,420;    3,910;    3,670;6705,51000
 362,83; 6681,740;    1,410;    1,900;6680,33000
 363,17; 6849,160;    1,950;    6,090;6847,21000
 363,51; 6733,170;   -1,270;   -0,830;6734,44000
 363,85; 6611,370;   -4,550;    2,930;6615,92000
 364,19; 6862,300;   -1,360;    3,810;6863,66000
 364,53; 6772,290;   -2,340;   -3,340;6774,63000
 364,87; 6844,390;    4,970;    4,170;6839,42000
 365,21; 6914,270;    3,080;    1,720;6911,19000
 365,55; 7099,170;    4,420;    0,380;7094,75000
 365,89; 7174,310;    5,050;    8,710;7169,26000
 366,23; 6862,180;   -5,340;    4,580;6867,52000
 366,57; 7139,360;    1,700;    5,580;7137,66000
 366,91; 7100,650;   -0,730;   -0,610;7101,38000
 367,25; 7096,750;    2,350;    2,390;7094,40000
 367,59; 7308,140;   -0,090;    1,360;7308,23000
 367,93; 7416,850;    3,250;    2,410;7413,60000
 368,27; 7307,140;   -1,270;   -2,920;7308,41000
 368,61; 7427,170;    0,070;    2,710;7427,10000
 368,95; 7592,150;   -0,770;    3,060;7592,92000
 369,29; 7529,990;   -6,140;    1,940;7536,13000
 369,63; 7631,360;   -6,110;   -4,530;7637,47000
 369,97; 8033,060;   -1,200;    2,720;8034,26000
 370,31; 7934,960;   -1,470;    2,380;7936,43000
 370,65; 8101,780;   -2,870;    6,590;8104,65000
 370,99; 7969,940;    7,260;    3,990;7962,68000
 371,33; 7992,500;   -3,110;   -2,590;7995,61000
 371,67; 8231,230;   -0,770;    2,270;8232,00000
 372,01; 8477,650;    0,520;    4,790;8477,13000
 372,35; 8498,710;   -1,500;    3,510;8500,21000
 372,69; 8492,320;    0,210;    8,190;8492,11000
 373,03; 8311,410;    2,140;    0,530;8309,27000
 373,37; 8697,590;   -1,650;   -4,260;8699,24000
 373,71; 8760,160;   -7,320;   -6,870;8767,48000
 374,05; 8941,360;    2,410;    5,720;8938,95000
 374,39; 9090,190;   -3,280;    5,190;9093,47000
 374,73; 8838,500;    7,940;    4,230;8830,56000
 375,07; 9210,490;   -3,770;    5,730;9214,26000
 375,41; 8987,190;    5,290;    6,040;8981,90000
 375,75; 9010,560;   -1,460;   -1,440;9012,02000
 376,09; 9336,880;    3,550;    2,410;9333,33000
 376,43; 9381,770;    1,080;   -5,140;9380,69000
 376,77; 9557,560;    0,980;    2,020;9556,58000
 377,11; 9607,800;   -2,040;    2,730;9609,84000
 377,45; 9731,160;   10,360;    1,040;9720,80000
 377,79; 9699,360;   -1,730;   -7,090;9701,09000
 378,13;10093,650;   -5,750;   10,500;10099,40000
 378,47; 9869,370;   -4,880;   -0,100;9874,25000
 378,81; 9830,990;    1,730;   -2,430;9829,26000
 379,15;10255,620;   -1,100;    4,630;10256,72000
 379,49;10092,920;    1,770;    7,300;10091,15000
 379,83;10056,700;   -3,150;   -3,710;10059,85000
 380,17; 9949,440;   -3,150;    1,040;9952,59000
 380,51;10270,930;   -5,820;    5,750;10276,75000
 380,85;10151,850;    1,240;   -1,870;10150,61000
 381,19;10403,570;   -2,950;   -2,690;10406,52000
 381,53;10071,220;    3,660;    0,410;10067,56000
 381,87; 9965,550;   -0,310;    2,200;9965,86000
 382,21; 9952,850;    0,090;    3,600;9952,76000
 382,55;10479,060;   -5,440;    6,140;10484,50000
 382,89;10141,490;    2,260;    4,530;10139,23000
 383,23;10090,170;    2,600;   -0,420;10087,57000
 383,56; 9999,340;    1,270;   -2,320;9998,07000
 383,90;10231,490;   -2,870;    0,330;10234,36000
 384,24;10374,350;    5,170;    1,240;10369,18000
 384,58; 9993,690;   -0,290;    3,450;9993,98000
 384,92;10074,680;    0,230;    2,060;10074,45000
 385,26; 9788,610;   -1,770;  -11,440;9790,38000
 385,60;10053,100;    0,920;   33,870;10052,18000
 385,94; 9980,360;    3,300;   59,610;9977,06000
 386,28; 9783,140;    1,030;   -1,900;9782,11000
 386,62; 9611,860;    0,750;    7,620;9611,11000
 386,96;10043,760;    2,000;    1,740;10041,76000
 387,30; 9734,360;   -3,240;   -0,690;9737,60000
 387,64; 9226,390;   -0,240;    9,570;9226,63000
 387,98; 9649,780;   -4,630;   -1,160;9654,41000
 388,32; 9432,700;    2,800;    3,260;9429,90000
 388,66; 9934,240;   -0,460;    2,420;9934,70000
 389,00; 9219,200;   -4,450;    4,520;9223,65000
 389,34; 9516,170;    1,450;   -0,240;9514,72000
 389,68; 9064,370;    8,950;    3,370;9055,42000
 390,02; 9632,490;   -0,620;    0,880;9633,11000
 390,36; 9661,410;   -0,920;    4,370;9662,33000
 390,70; 9567,090;    5,430;   -2,130;9561,66000
 391,04; 9230,810;    0,060;    4,320;9230,75000
 391,38; 9312,190;   -2,710;    0,090;9314,90000
 391,71; 9525,290;   -0,460;    2,280;9525,75000
 392,05; 9403,200;    6,440;    5,720;9396,76000
 392,39; 9180,140;   -1,510;    1,990;9181,65000
 392,73; 9538,210;    4,320;   -0,370;9533,89000
 393,07; 9107,440;   -1,700;    2,500;9109,14000
 393,41; 9568,530;    0,930;    0,940;9567,60000
 393,75; 9462,580;    3,710;   -2,340;9458,87000
 394,09; 9953,610;   -2,470;    3,860;9956,08000
 394,43; 9998,010;    6,110;    1,470;9991,90000
 394,77;10238,850;    5,010;   -5,040;10233,84000
 395,11;10638,360;   -0,480;   -1,530;10638,84000
 395,45;11359,070;    0,350;    0,150;11358,72000
 395,79;11005,730;   -4,350;    8,430;11010,08000
 396,13;11583,540;    3,740;    2,220;11579,80000
 396,47;11972,210;    5,250;    2,580;11966,96000
 396,81;11489,780;   -5,390;    4,350;11495,17000
 397,14;11447,460;    2,220;    4,250;11445,24000
 397,48;11410,660;    6,790;    1,190;11403,87000
 397,82;11154,990;   -5,900;    4,150;11160,89000
 398,16;10704,850;   -2,980;    4,190;10707,83000
 398,50;10709,890;    2,410;    7,140;10707,48000
 398,84;10227,390;    1,910;   -0,610;10225,48000
 399,18;10383,230;    1,580;   -1,870;10381,65000
 399,52;10294,600;    5,840;    0,490;10288,76000
 399,86;10587,000;    7,170;    1,400;10579,83000
 400,20;10611,550;    1,160;   -3,620;10610,39000
 400,54;10387,450;   -1,570;    2,300;10389,02000
 400,88;11173,000;    7,200;   -4,160;11165,80000
 401,22;10369,480;    3,940;   -0,530;10365,54000
 401,55;10754,080;    0,130;   -3,210;10753,95000
 401,89;10630,470;    5,430;    8,670;10625,04000
 402,23;10371,880;   -3,120;    6,130;10375,00000
 402,57;10338,740;    4,220;    4,770;10334,52000
 402,91;10502,610;   -3,980;    1,650;10506,59000
 403,25;10516,390;    1,650;    3,690;10514,74000
 403,59;10459,850;    2,620;    1,960;10457,23000
 403,93;11395,930;    1,810;    7,590;11394,12000
 404,27;11090,300;   -1,860;   -1,950;11092,16000
 404,61;11078,690;    1,350;   -0,370;11077,34000
 404,95;11164,160;    3,580;    0,380;11160,58000
 405,28;11538,160;    1,340;    8,580;11536,82000
 405,62;11375,400;    8,000;    1,890;11367,40000
 405,96;11839,900;    3,450;    2,710;11836,45000
 406,30;11969,410;    2,330;   -4,150;11967,08000
 406,64;11204,550;   -4,310;    1,360;11208,86000
 406,98;11475,960;    5,570;   -1,920;11470,39000
 407,32;11004,020;    5,730;    1,550;10998,29000
 407,66;11795,570;   -3,200;    3,360;11798,77000
 408,00;11695,160;   -0,840;    1,610;11696,00000
 408,34;11166,190;    4,650;   -6,670;11161,54000
 408,67;11288,460;    1,410;   -1,990;11287,05000
 409,01;11989,560;    0,500;    2,160;11989,06000
 409,35;11286,040;    1,880;    8,550;11284,16000
 409,69;11318,650;    1,200;    3,070;11317,45000
 410,03;11530,550;    0,820;   -1,620;11529,73000
 410,37;11984,650;    3,430;   -5,310;11981,22000
 410,71;11424,460;   -1,260;    2,520;11425,72000
 411,05;12546,380;   -1,680;    3,940;12548,06000
 411,39;12266,910;    2,900;    6,160;12264,01000
 411,72;11704,360;   -6,390;    0,630;11710,75000
 412,06;11556,510;    3,600;    5,330;11552,91000
 412,40;12510,120;   -5,490;    3,100;12515,61000
 412,74;12270,410;    0,890;    0,490;12269,52000
 413,08;12277,880;   -3,090;    0,910;12280,97000
 413,42;12187,310;    6,680;    5,270;12180,63000
 413,76;12160,820;   -2,850;    3,260;12163,67000
 414,10;11865,460;    0,820;    4,470;11864,64000
 414,44;11459,410;   -1,740;   -4,520;11461,15000
 414,77;12117,520;   -1,290;   -3,320;12118,81000
 415,11;12323,610;    3,010;    1,630;12320,60000
 415,45;12915,490;    0,020;    6,710;12915,47000
 415,79;11603,240;   -5,060;   -2,010;11608,30000
 416,13;11368,000;   -2,480;    7,230;11370,48000
 416,47;11454,790;    0,020;   -1,380;11454,77000
 416,81;11579,280;    2,000;    4,880;11577,28000
 417,15;11240,600;    4,150;    8,810;11236,45000
 417,48;11848,740;    2,970;    7,260;11845,77000
 417,82;12220,040;   -3,890;    5,450;12223,93000
 418,16;11689,860;   -1,670;   -1,950;11691,53000
 418,50;12631,240;    2,840;   -3,870;12628,40000
 418,84;12712,110;    0,680;    4,950;12711,43000
 419,18;12948,430;   -3,650;   -5,380;12952,08000
 419,52;12232,860;    2,210;    3,310;12230,65000
 419,85;12533,900;   -0,110;   -1,450;12534,01000
 420,19;12197,060;   -1,650;    3,320;12198,71000
 420,53;11885,620;    3,870;    1,230;11881,75000
 420,87;11710,320;   -3,560;    4,470;11713,88000
 421,21;12046,740;   -4,880;    8,320;12051,62000
 421,55;11951,350;    3,060;    1,960;11948,29000
 421,89;11543,170;    1,520;   -3,940;11541,65000
 422,22;11658,970;    5,510;    4,640;11653,46000
 422,56;11672,520;    4,830;    0,050;11667,69000
 422,90;11333,210;    1,450;    7,810;11331,76000
 423,24;11704,090;    1,210;    0,360;11702,88000
 423,58;10689,940;   -1,480;    7,660;10691,42000
 423,92;12327,770;    0,900;   -1,020;12326,87000
 424,26;12019,970;    1,610;    0,610;12018,36000
 424,59;12027,990;    0,530;   -2,350;12027,46000
 424,93;12225,280;    4,360;    3,240;12220,92000
 425,27;11391,790;    7,910;    2,000;11383,88000
 425,61;11491,450;    0,790;    1,440;11490,66000
 425,95;11382,930;    2,850;    0,380;11380,08000
 426,29;11308,260;    2,160;    0,440;11306,10000
 426,62;12233,440;   -2,320;    9,480;12235,76000
 426,96;11563,850;   -0,200;    1,960;11564,05000
 427,30;11882,240;    1,050;   -3,270;11881,19000
 427,64;11819,400;   -3,610;    1,560;11823,01000
 427,98;11413,850;    0,100;    4,510;11413,75000
 428,32;11714,130;   -1,900;    3,620;11716,03000
 428,65;11862,550;    5,850;    0,270;11856,70000
 428,99;12645,880;    5,980;    2,990;12639,90000
 429,33;11385,100;   -0,520;    1,180;11385,62000
 429,67;11194,640;   -1,540;    5,380;11196,18000
 430,01;11868,280;   -3,330;   -0,520;11871,61000
 430,35;12125,710;    1,860;    4,970;12123,85000
 430,68;12452,310;   -5,700;   -0,330;12458,01000
 431,02;11529,370;    1,500;    4,850;11527,87000
 431,36;12786,190;    2,090;    1,100;12784,10000
 431,70;12041,910;   -0,770;    5,090;12042,68000
 432,04;11980,760;   -1,590;   -1,580;11982,35000
 432,38;12813,280;    2,930;    5,880;12810,35000
 432,71;12998,990;    3,220;    3,300;12995,77000
 433,05;12399,710;   -1,990;    4,190;12401,70000
 433,39;12021,260;   -5,550;    0,230;12026,81000
 433,73;12768,480;   -2,540;   -5,160;12771,02000
 434,07;12726,720;   -4,710;    0,870;12731,43000
 434,41;12613,110;   -1,600;    3,120;12614,71000
 434,74;12376,450;   -2,430;   -3,120;12378,88000
 435,08;12974,470;    5,760;    3,140;12968,71000
 435,42;13598,710;    1,060;   -0,680;13597,65000
 435,76;13094,660;    2,720;    7,110;13091,94000
 436,10;13483,600;    1,060;   -1,600;13482,54000
 436,43;13317,580;    3,450;   -3,020;13314,13000
 436,77;13600,660;    0,140;    5,450;13600,52000
 437,11;14432,340;    6,420;    2,250;14425,92000
 437,45;14111,170;    0,690;    5,160;14110,48000
 437,79;13610,900;    1,650;    1,970;13609,25000
 438,12;14045,440;   -6,420;   -2,740;14051,86000
 438,46;14626,660;   -1,500;    1,690;14628,16000
 438,80;14023,050;   -0,890;   -2,840;14023,94000
 439,14;13578,090;    3,700;   -1,260;13574,39000
 439,48;14661,220;    7,710;    1,780;14653,51000
 439,81;13735,180;    6,530;   -2,440;13728,65000
 440,15;13535,470;    3,950;   -0,800;13531,52000
 440,49;13199,980;   -3,070;    6,490;13203,05000
 440,83;13344,850;   -0,940;   -2,880;13345,79000
 441,17;13770,720;    2,230;    1,020;13768,49000
 441,50;14306,800;    4,820;    6,310;14301,98000
 441,84;13812,340;    0,640;    2,470;13811,70000
 442,18;13582,080;    2,070;    2,490;13580,01000
 442,52;13594,400;   -1,020;    0,850;13595,42000
 442,86;13037,730;    7,180;    2,850;13030,55000
 443,19;13426,420;   -2,600;    3,530;13429,02000
 443,53;14726,080;    2,000;    3,990;14724,08000
 443,87;13889,260;    1,220;    0,620;13888,04000
 444,21;13083,350;   -0,280;   -0,190;13083,63000
 444,55;12733,510;    2,850;   -1,810;12730,66000
 444,88;13720,700;   -4,440;    6,350;13725,14000
 445,22;13709,970;    1,380;    3,220;13708,59000
 445,56;13354,050;    1,840;    1,360;13352,21000
 445,90;12631,860;   -1,260;    6,110;12633,12000
 446,23;12458,020;    4,800;   -4,600;12453,22000
 446,57;12365,980;    4,790;   -3,300;12361,19000
 446,91;12631,610;   -0,250;    3,300;12631,86000
 447,25;12693,500;   -4,410;   -3,760;12697,91000
 447,59;12521,750;    7,690;   -1,610;12514,06000
 447,92;13024,490;    5,830;   -1,410;13018,66000
 448,26;13463,840;    1,030;    0,750;13462,81000
 448,60;13414,760;   -1,670;    1,180;13416,43000
 448,94;14660,250;   -5,210;    3,350;14665,46000
 449,27;14949,340;   -2,130;   -0,710;14951,47000
 449,61;15801,290;    1,540;    0,300;15799,75000
 449,95;15353,850;    4,070;    2,060;15349,78000
 450,29;14004,260;    0,860;    2,850;14003,40000
 450,63;13115,470;    1,760;    0,820;13113,71000
 450,96;13951,570;   -1,200;   -7,790;13952,77000
 451,30;14319,420;    1,290;    4,530;14318,13000
 451,64;14717,340;    1,560;   -1,050;14715,78000
 451,98;13880,120;    1,540;   -1,040;13878,58000
 452,31;13751,730;    1,200;   -2,660;13750,53000
 452,65;13163,150;    3,030;    4,490;13160,12000
 452,99;12537,830;   -3,010;    6,180;12540,84000
 453,33;12340,210;    0,530;    0,980;12339,68000
 453,66;12882,460;    3,020;   -4,470;12879,44000
 454,00;12588,320;    2,600;   -0,360;12585,72000
 454,34;11937,720;    3,610;    2,280;11934,11000
 454,68;13128,670;    0,940;    1,380;13127,73000
 455,01;12390,920;    1,600;   -1,880;12389,32000
 455,35;12858,290;    4,430;    3,650;12853,86000
 455,69;13130,270;   -4,200;    1,700;13134,47000
 456,03;12596,020;    6,530;    5,610;12589,49000
 456,36;12749,150;    1,500;    1,410;12747,65000
 456,70;13035,610;   -1,290;    2,680;13036,90000
 457,04;14463,740;   -4,250;    2,530;14467,99000
 457,38;12730,710;    3,050;   -0,030;12727,66000
 457,71;13298,810;   -2,970;   -3,490;13301,78000
 458,05;13068,330;    2,550;  -10,080;13065,78000
 458,39;13219,270;    2,950;   33,160;13216,32000
 458,73;12591,790;   -4,420;   57,340;12596,21000
 459,06;12741,800;   -2,400;    6,920;12744,20000
 459,40;13035,340;   -6,150;    7,730;13041,49000
 459,74;13749,560;    3,710;    1,140;13745,85000
 460,08;14057,100;    3,900;   13,600;14053,20000
 460,41;13431,300;    3,550;   -4,690;13427,75000
 460,75;14335,550;    3,960;    0,600;14331,59000
 461,09;15561,060;   -0,290;    0,830;15561,35000
 461,43;15886,620;   -0,180;   -2,320;15886,80000
 461,76;16705,360;   -3,020;    2,630;16708,38000
 462,10;17302,140;   -0,150;    9,230;17302,29000
 462,44;17818,430;   -2,540;    5,490;17820,97000
 462,77;17978,560;   -1,530;    5,710;17980,09000
 463,11;16542,750;    7,320;   -1,930;16535,43000
 463,45;16734,490;   -3,180;    1,210;16737,67000
 463,79;16884,510;    5,350;   -1,710;16879,16000
 464,12;16060,790;    5,320;    6,320;16055,47000
 464,46;16397,730;   -1,020;    6,990;16398,75000
 464,80;16163,330;   -1,920;    0,520;16165,25000
 465,14;15529,750;    0,000;    4,860;15529,75000
 465,47;17020,320;   -0,710;   11,350;17021,03000
 465,81;19026,990;    2,700;   -5,620;19024,29000
 466,15;21876,510;   -0,800;    0,110;21877,31000
 466,48;25267,800;   -4,570;    1,230;25272,37000
 466,82;26222,220;   -3,090;   -2,590;26225,31000
 467,16;27651,500;   -0,050;    1,610;27651,55000
 467,50;25627,870;    1,010;    4,120;25626,86000
 467,83;25420,410;   -1,120;   -1,070;25421,53000
 468,17;23681,960;   -5,640;    5,720;23687,60000
 468,51;23123,830;    1,130;    1,000;23122,70000
 468,84;22745,770;    9,120;    6,910;22736,65000
 469,18;22879,700;    0,860;   -6,220;22878,84000
 469,52;23064,410;    2,170;    0,920;23062,24000
 469,86;22029,840;    2,320;    6,540;22027,52000
 470,19;20635,170;    3,880;   -1,060;20631,29000
 470,53;21130,760;    0,090;    0,530;21130,67000
 470,87;21796,870;    3,530;    4,140;21793,34000
 471,20;20723,700;   -5,820;   -6,030;20729,52000
 471,54;20566,310;   -5,990;    4,770;20572,30000
 471,88;22457,830;    1,580;   -1,790;22456,25000
 472,21;24482,830;   -2,700;   -5,290;24485,53000
 472,55;25491,230;   -1,880;    6,290;25493,11000
 472,89;26552,200;   -1,600;    4,440;26553,80000
 473,23;25652,810;    5,500;   -0,090;25647,31000
 473,56;23554,510;    4,590;    9,310;23549,92000
 473,90;22678,910;    9,580;    0,330;22669,33000
 474,24;22080,740;    1,360;    1,450;22079,38000
 474,57;22547,300;   -1,150;    7,090;22548,45000
 474,91;21091,020;    4,250;    3,950;21086,77000
 475,25;20935,720;   -2,630;   -2,250;20938,35000
 475,58;21903,990;   -3,560;    3,030;21907,55000
 475,92;21766,790;    4,220;   -3,270;21762,57000
 476,26;21830,690;   -3,030;   -0,560;21833,72000
 476,59;21799,830;    4,600;    5,230;21795,23000
 476,93;21710,430;    0,870;    3,800;21709,56000
 477,27;22565,180;   -4,640;    6,300;22569,82000
 477,61;22648,780;    0,910;   -5,360;22647,87000
 477,94;22768,800;    1,960;    1,800;22766,84000
 478,28;23649,320;    4,700;   -0,100;23644,62000
 478,62;24541,980;    3,760;   -1,240;24538,22000
 478,95;23977,600;    0,590;    1,000;23977,01000
 479,29;25252,290;    1,450;    7,660;25250,84000
 479,63;27400,740;    4,490;    5,480;27396,25000
 479,96;28432,170;    0,710;   -3,850;28431,46000
 480,30;29327,320;   -5,770;    1,970;29333,09000
 480,64;30367,850;    3,120;   -1,970;30364,73000
 480,97;29871,910;    6,980;    0,860;29864,93000
 481,31;29414,120;  -10,680;   -3,520;29424,80000
 481,65;29406,420;   -4,050;    0,380;29410,47000
 481,98;29727,860;    2,680;   -1,670;29725,18000
 482,32;30345,040;   -4,360;    3,800;30349,40000
 482,66;30463,590;    5,850;    4,790;30457,74000
 482,99;30357,520;    2,220;    0,380;30355,30000
 483,33;29310,260;   -3,710;    2,510;29313,97000
 483,67;29613,400;    6,630;    2,390;29606,77000
 484,00;29104,330;   -0,440;   -2,890;29104,77000
 484,34;28894,770;    1,220;    0,950;28893,55000
 484,68;28761,060;    3,430;    0,430;28757,63000
 485,01;27854,340;    1,120;    7,470;27853,22000
 485,35;28151,860;   -1,210;   -0,050;28153,07000
 485,69;27990,270;   -4,690;    5,140;27994,96000
 486,02;27845,670;    1,490;    4,750;27844,18000
 486,36;27580,190;    1,720;    0,860;27578,47000
 486,70;27359,400;    3,190;    2,090;27356,21000
 487,03;27603,870;   -1,180;   -3,960;27605,05000
 487,37;27665,580;    5,640;    8,760;27659,94000
 487,70;27617,420;    4,570;   -2,870;27612,85000
 488,04;27639,600;   -1,890;   -2,980;27641,49000
 488,38;27867,770;   -0,240;    5,990;27868,01000
 488,71;28029,810;    1,690;    8,920;28028,12000
 489,05;28306,980;   -1,680;   -2,310;28308,66000
 489,39;28388,700;   -6,740;   -1,580;28395,44000
 489,72;28302,970;    2,310;   -0,500;28300,66000
 490,06;29346,440;   -3,680;    6,880;29350,12000
 490,40;30557,970;    3,150;    9,690;30554,82000
 490,73;32245,050;   -1,130;    2,160;32246,18000
 491,07;33893,060;   -4,510;    2,420;33897,57000
 491,41;34924,680;   -2,480;    5,800;34927,16000
 491,74;34593,780;    9,760;   -0,140;34584,02000
 492,08;34639,050;    7,160;    8,530;34631,89000
 492,41;33500,920;    4,670;   -1,300;33496,25000
 492,75;33103,520;   -5,210;   -0,030;33108,73000
 493,09;32266,180;    3,690;    4,150;32262,49000
 493,42;31358,840;    1,210;    4,150;31357,63000
 493,76;30750,480;   -1,380;   -0,570;30751,86000
 494,10;29927,180;    4,540;   -1,780;29922,64000
 494,43;29783,530;   -3,160;    3,110;29786,69000
 494,77;29253,180;   -3,140;    2,770;29256,32000
 495,11;29326,810;    3,930;   11,140;29322,88000
 495,44;29306,000;    5,130;   -4,530;29300,87000
 495,78;28944,500;   -1,090;    5,470;28945,59000
 496,11;28728,220;   -2,640;   -4,260;28730,86000
 496,45;28784,110;   -2,460;    6,110;28786,57000
 496,79;28706,260;   -0,380;    2,220;28706,64000
 497,12;28968,170;    2,150;    2,140;28966,02000
 497,46;28608,130;    3,960;   -2,720;28604,17000
 497,80;28349,260;   -2,580;   -1,710;28351,84000
 498,13;28229,170;   -1,200;    2,630;28230,37000
 498,47;28161,730;    1,880;   -0,940;28159,85000
 498,80;28422,900;    2,910;    0,300;28419,99000
 499,14;28302,560;    3,180;    1,520;28299,38000
 499,48;28032,440;   -3,630;    3,640;28036,07000
 499,81;28145,930;    4,100;    3,640;28141,83000
 500,15;28292,330;   -6,230;   -0,380;28298,56000
 500,48;28310,700;    5,180;   -2,000;28305,52000
 500,82;28148,910;    3,000;    3,040;28145,91000
 501,16;28248,590;    0,260;    6,580;28248,33000
 501,49;28169,090;    0,450;    2,880;28168,64000
 501,83;28225,580;    2,860;    5,120;28222,72000
 502,16;28208,470;   -1,280;   -2,370;28209,75000
 502,50;28871,100;    0,760;    1,260;28870,34000
 502,84;28811,920;   -1,410;    0,050;28813,33000
 503,17;28876,950;    4,220;   -4,780;28872,73000
 503,51;28772,100;    3,830;    5,590;28768,27000
 503,84;28602,800;   -0,960;    3,500;28603,76000
 504,18;28295,570;   -3,110;   -5,340;28298,68000
 504,52;28329,040;   -5,780;    9,360;28334,82000
 504,85;28337,450;   -2,760;    5,700;28340,21000
 505,19;28134,530;   -3,090;    6,070;28137,62000
 505,52;28331,690;    1,750;    1,120;28329,94000
 505,86;28078,330;    0,450;    0,140;28077,88000
 506,20;27951,590;   -1,530;   -6,900;27953,12000
 506,53;27368,340;   -4,950;   -0,650;27373,29000
 506,87;28135,960;   -2,330;    6,970;28138,29000
 507,20;28024,080;    4,340;    4,280;28019,74000
 507,54;28026,220;   -3,890;    1,650;28030,11000
 507,88;28065,670;    4,120;    3,780;28061,55000
 508,21;27883,570;   -4,500;   -2,490;27888,07000
 508,55;27753,630;    2,100;    7,120;27751,53000
 508,88;28141,140;   -0,670;   -2,090;28141,81000
 509,22;27873,520;    0,510;    6,200;27873,01000
 509,55;28360,130;   -1,720;   -0,800;28361,85000
 509,89;27543,340;   -2,020;   -1,440;27545,36000
 510,23;27772,530;    4,210;   -2,140;27768,32000
 510,56;27578,570;    2,290;    3,250;27576,28000
 510,90;27583,570;    2,390;    3,340;27581,18000
 511,23;27234,130;   -3,700;    2,710;27237,83000
 511,57;27531,810;    2,550;   -1,650;27529,26000
 511,90;27601,270;   -2,220;    0,050;27603,49000
 512,24;27582,540;    2,640;   -2,950;27579,90000
 512,58;28156,610;    2,830;    8,290;28153,78000
 512,91;27905,400;    4,570;    0,630;27900,83000
 513,25;27929,510;    0,840;    0,020;27928,67000
 513,58;27710,910;    1,680;    2,880;27709,23000
 513,92;27596,080;   -1,370;    0,770;27597,45000
 514,25;28053,720;   -3,740;    0,820;28057,46000
 514,59;28216,800;    2,840;    2,600;28213,96000
 514,93;28000,150;   -0,860;    1,530;28001,01000
 515,26;28223,480;    0,960;    7,590;28222,52000
 515,60;28086,180;    0,540;   -2,580;28085,64000
 515,93;28021,240;    0,320;   -1,230;28020,92000
 516,27;27897,340;    2,690;    4,840;27894,65000
 516,60;27973,960;   -3,540;    2,850;27977,50000
 516,94;27452,590;    3,080;   -2,570;27449,51000
 517,27;27696,410;   -0,960;    4,570;27697,37000
 517,61;27740,200;   -0,640;    5,270;27740,84000
 517,95;27818,230;   -0,540;    2,170;27818,77000
 518,28;27817,720;   -2,290;    5,290;27820,01000
 518,62;27761,150;    7,920;    1,670;27753,23000
 518,95;27849,810;    3,420;    1,190;27846,39000
 519,29;27602,570;    3,180;    1,710;27599,39000
 519,62;27294,380;   -0,740;    2,510;27295,12000
 519,96;27377,170;   -3,110;    3,920;27380,28000
 520,29;27007,340;    2,350;   -0,430;27004,99000
 520,63;27095,680;   -3,250;   -0,150;27098,93000
 520,96;27381,570;    4,350;    3,620;27377,22000
 521,30;27457,830;   -5,450;    1,200;27463,28000
 521,64;27729,620;    0,240;    3,890;27729,38000
 521,97;27364,140;   -5,890;    6,380;27370,03000
 522,31;27088,760;   -0,810;   -7,270;27089,57000
 522,64;26715,450;    2,370;   -5,510;26713,08000
 522,98;27070,750;    0,500;    1,290;27070,25000
 523,31;26637,560;    0,130;    1,900;26637,43000
 523,65;27082,090;   -5,310;   -6,200;27087,40000
 523,98;26935,650;    8,970;    5,970;26926,68000
 524,32;26692,780;    2,120;    1,030;26690,66000
 524,65;26907,000;    3,740;    1,710;26903,26000
 524,99;26718,310;    2,000;   -2,690;26716,31000
 525,32;26901,930;    0,150;    0,540;26901,78000
 525,66;26912,860;   -7,110;    0,430;26919,97000
 525,99;26720,160;   -1,690;    4,440;26721,85000
 526,33;26840,350;    9,160;   -3,490;26831,19000
 526,66;26769,780;   -1,560;    2,600;26771,34000
 527,00;26438,400;   -4,620;    3,270;26443,02000
 527,34;26409,890;    3,480;    5,670;26406,41000
 527,67;26372,520;   -1,250;   -0,570;26373,77000
 528,01;26255,750;    1,220;    0,220;26254,53000
 528,34;26153,870;   -4,500;    1,970;26158,37000
 528,68;26100,400;    1,710;    5,830;26098,69000
 529,01;25994,770;    0,070;   -4,490;25994,70000
 529,35;25984,680;    0,530;    3,460;25984,15000
 529,68;26052,880;   -1,680;    3,480;26054,56000
 530,02;26168,980;   -2,800;    3,200;26171,78000
 530,35;26396,060;   -2,750;   -8,440;26398,81000
 530,69;26108,810;   -0,990;   29,930;26109,80000
 531,02;26203,550;   -1,140;   56,520;26204,69000
 531,36;26051,290;    2,440;    3,800;26048,85000
 531,69;25947,330;   -5,030;    5,160;25952,36000
 532,03;26257,660;   -5,240;    3,910;26262,90000
 532,36;26543,050;   -1,230;    1,970;26544,28000
 532,70;26516,320;   -2,540;    1,890;26518,86000
 533,03;26541,470;   -2,790;   -3,110;26544,26000
 533,37;26058,580;   -0,060;    4,230;26058,64000
 533,70;25602,950;   -4,310;    4,400;25607,26000
 534,04;25785,370;    1,520;    2,450;25783,85000
 534,37;25729,650;    1,770;    2,640;25727,88000
 534,71;25840,070;    1,470;   -1,000;25838,60000
 535,04;26087,750;   -4,710;    2,680;26092,46000
 535,38;26035,540;    2,270;    3,230;26033,27000
 535,71;25908,590;    4,380;    0,930;25904,21000
 536,05;26119,690;   -2,230;    2,100;26121,92000
 536,38;26436,170;    2,050;    3,340;26434,12000
 536,72;26134,560;   -2,680;    4,090;26137,24000
 537,05;25908,230;    1,890;    6,640;25906,34000
 537,39;26102,140;    1,880;    3,610;26100,26000
 537,72;26362,650;   -0,840;    6,190;26363,49000
 538,06;26574,880;    2,220;    2,570;26572,66000
 538,39;26697,560;   -5,640;    2,250;26703,20000
 538,73;26723,960;    0,300;   -0,040;26723,66000
 539,06;26471,730;   -0,560;   -0,200;26472,29000
 539,40;26500,000;    1,750;    5,550;26498,25000
 539,73;26269,230;   -4,810;    3,140;26274,04000
 540,06;26557,020;    1,780;    6,510;26555,24000
 540,40;26735,700;    2,790;   -1,330;26732,91000
 540,73;26768,200;    2,640;    2,640;26765,56000
 541,07;26879,860;   -0,070;    1,200;26879,93000
 541,40;27044,970;    0,240;    4,640;27044,73000
 541,74;27455,000;    8,130;    3,540;27446,87000
 542,07;26951,310;   -3,090;   -0,540;26954,40000
 542,41;26866,450;   -1,130;    2,540;26867,58000
 542,74;26699,600;    4,670;    6,510;26694,93000
 543,08;26905,610;    1,970;    2,200;26903,64000
 543,41;26705,970;   -0,290;   -1,260;26706,26000
 543,75;26775,940;    2,140;   -0,700;26773,80000
 544,08;26821,600;   -0,750;   10,220;26822,35000
 544,42;27028,710;   -5,420;    0,830;27034,13000
 544,75;27095,080;   -2,280;    0,750;27097,36000
 545,09;27256,500;   -5,600;   -1,050;27262,10000
 545,42;27279,100;   -1,460;    4,050;27280,56000
 545,75;27243,150;    4,940;    3,470;27238,21000
 546,09;27047,100;   -1,750;    0,050;27048,85000
 546,42;27414,520;    3,640;    3,700;27410,88000
 546,76;27423,670;    9,320;    3,460;27414,35000
 547,09;26943,300;   -2,910;    0,370;26946,21000
 547,43;27022,820;   -1,510;    8,850;27024,33000
 547,76;27205,810;    1,600;   -4,470;27204,21000
 548,10;27146,420;    0,860;    1,660;27145,56000
 548,43;26899,730;   -1,790;    0,720;26901,52000
 548,76;26767,700;   -4,280;   -1,010;26771,98000
 549,10;27030,150;    5,890;   -0,730;27024,26000
 549,43;27015,480;   -6,170;    3,840;27021,65000
 549,77;26611,370;   -0,770;   -2,450;26612,14000
 550,10;26529,370;    7,670;    0,310;26521,70000
 550,44;26794,370;    3,800;   -0,370;26790,57000
 550,77;26841,350;    1,430;    7,640;26839,92000
 551,11;26743,910;   -0,610;    1,220;26744,52000
 551,44;26473,140;    2,070;    2,480;26471,07000
 551,77;26505,690;    1,310;   -4,760;26504,38000
 552,11;26331,550;   -4,050;    5,570;26335,60000
 552,44;26380,610;   -0,030;    4,180;26380,64000
 552,78;26325,200;    0,730;    0,480;26324,47000
 553,11;26271,440;   -6,840;   -2,650;26278,28000
 553,45;26085,830;    0,980;   -1,040;26084,85000
 553,78;26087,110;    0,440;    1,400;26086,67000
 554,12;25865,650;   -4,650;   -2,450;25870,30000
 554,45;26128,650;   -4,320;    1,230;26132,97000
 554,78;25794,030;    2,340;    4,250;25791,69000
 555,12;26002,870;   -0,580;   -2,560;26003,45000
 555,45;25826,570;   -0,940;    8,650;25827,51000
 555,79;26195,520;    2,860;   -1,140;26192,66000
 556,12;25655,740;   -1,950;    8,360;25657,69000
 556,45;25850,860;    3,230;    2,960;25847,63000
 556,79;25631,100;   -0,370;    3,240;25631,47000
 557,12;25393,620;    2,050;    2,570;25391,57000
 557,46;25264,510;   -1,250;    8,160;25265,76000
 557,79;25404,700;    4,270;    3,260;25400,43000
 558,13;25085,010;    6,110;    8,530;25078,90000
 558,46;25269,850;    0,420;    0,860;25269,43000
 558,79;25086,100;   -3,440;    6,670;25089,54000
 559,13;25288,190;   -1,920;   -3,210;25290,11000
 559,46;24897,490;    1,290;   -0,190;24896,20000
 559,80;24728,020;   -2,480;    6,490;24730,50000
 560,13;24726,840;    1,110;    3,400;24725,73000
 560,46;24685,000;    0,690;    6,230;24684,31000
 560,80;24693,430;   -2,000;    1,900;24695,43000
 561,13;24774,500;    4,790;    0,810;24769,71000
 561,47;24515,860;    1,720;    4,320;24514,14000
 561,80;24587,710;   -4,100;    4,960;24591,81000
 562,13;24383,770;   -2,510;    4,430;24386,28000
 562,47;24189,390;   10,150;    1,920;24179,24000
 562,80;24015,230;    6,410;    2,240;24008,82000
 563,14;23909,900;    0,900;   -1,680;23909,00000
 563,47;23622,840;    2,380;    2,140;23620,46000
 563,80;23535,280;    0,190;    2,900;23535,09000
 564,14;23422,250;    3,880;   -0,740;23418,37000
 564,47;23652,050;    5,540;    3,320;23646,51000
 564,81;23515,780;    8,090;   10,860;23507,69000
 565,14;23667,890;   -2,360;    0,090;23670,25000
 565,47;23364,760;   -0,210;   -1,020;23364,97000
 565,81;23250,850;    5,690;    4,490;23245,16000
 566,14;22951,630;    1,980;    2,810;22949,65000
 566,48;23274,290;    2,170;    2,470;23272,12000
 566,81;23199,450;    4,660;    2,530;23194,79000
 567,14;22925,730;   -1,900;    2,130;22927,63000
 567,48;23053,200;    1,060;    0,570;23052,14000
 567,81;22939,520;    3,420;    0,030;22936,10000
 568,15;23058,680;    0,110;    5,610;23058,57000
 568,48;23046,490;   -5,500;    1,140;23051,99000
 568,81;22956,550;    0,140;    1,110;22956,41000
 569,15;22833,910;    6,520;    1,390;22827,39000
 569,48;22474,760;    3,650;   -0,360;22471,11000
 569,81;22283,180;    1,670;    1,170;22281,51000
 570,15;22354,810;    0,580;    5,900;22354,23000
 570,48;22458,940;    3,370;    0,820;22455,57000
 570,82;22141,840;    0,300;    1,040;22141,54000
 571,15;21905,980;    0,760;    6,150;21905,22000
 571,48;21924,880;    6,350;   -5,180;21918,53000
 571,82;21699,980;   -1,560;   -0,550;21701,54000
 572,15;21812,490;    4,170;    2,300;21808,32000
 572,48;21824,350;    8,160;    0,020;21816,19000
 572,82;21828,820;    2,640;   10,180;21826,18000
 573,15;21849,940;    5,560;   -2,640;21844,38000
 573,48;21642,130;   -3,170;    0,560;21645,30000
 573,82;21454,360;    4,920;    1,280;21449,44000
 574,15;21417,890;   -0,680;    1,840;21418,57000
 574,49;21651,250;    1,740;   -5,490;21649,51000
 574,82;21501,560;    0,420;    2,660;21501,14000
 575,15;21695,060;    1,340;    0,150;21693,72000
 575,49;21448,060;   -0,980;    2,180;21449,04000
 575,82;21579,920;    0,440;   -1,800;21579,48000
 576,15;21384,920;    1,750;   -3,060;21383,17000
 576,49;21173,400;    0,390;   -3,690;21173,01000
 576,82;21594,200;    1,200;    5,280;21593,00000
 577,15;21415,100;   -0,110;    4,070;21415,21000
 577,49;21128,110;   -5,030;   -4,570;21133,14000
 577,82;21234,510;   -0,840;   -8,470;21235,35000
 578,15;20965,650;   -2,520;   -2,390;20968,17000
 578,49;21112,820;   -0,860;   -2,140;21113,68000
 578,82;21212,290;   -0,730;   -2,880;21213,02000
 579,15;21167,850;   -4,300;    2,960;21172,15000
 579,49;21153,220;   -0,720;    1,650;21153,94000
 579,82;21300,660;    2,550;   -0,470;21298,11000
 580,15;20892,710;   -4,070;    2,570;20896,78000
 580,49;21258,200;    6,470;   -0,190;21251,73000
 580,82;21058,510;   -2,980;   -1,000;21061,49000
 581,15;21044,470;   -4,140;   -6,670;21048,61000
 581,49;20944,920;    1,890;    0,300;20943,03000
 581,82;21085,870;    6,850;    5,260;21079,02000
 582,15;21056,930;   -1,590;    5,200;21058,52000
 582,49;21233,940;   -6,460;    4,200;21240,40000
 582,82;21271,740;   -1,690;   -0,030;21273,43000
 583,15;21197,910;   -4,340;   -2,490;21202,25000
 583,49;21414,410;   -1,500;    8,650;21415,91000
 583,82;21623,590;   -1,150;    0,780;21624,74000
 584,15;21507,150;    7,490;    7,420;21499,66000
 584,49;21751,890;   -0,640;   -3,360;21752,53000
 584,82;21266,280;    2,010;    6,100;21264,27000
 585,15;21221,500;    1,760;    4,700;21219,74000
 585,49;20863,920;    5,520;    7,000;20858,40000
 585,82;20901,900;    0,350;    3,200;20901,55000
 586,15;21033,850;    3,680;    3,490;21030,17000
 586,49;20736,710;   -3,340;    3,260;20740,05000
 586,82;20885,330;   -1,310;    3,970;20886,64000
 587,15;20763,500;   -4,100;    2,000;20767,60000
 587,49;20729,530;   -6,220;    2,410;20735,75000
 587,82;20921,950;   -2,250;    5,070;20924,20000
 588,15;20527,020;   -4,000;   -2,550;20531,02000
 588,49;20455,690;    1,010;    3,970;20454,68000
 588,82;20434,170;    1,850;    3,970;20432,32000
 589,15;20553,990;   -4,250;    2,130;20558,24000
 589,48;20266,110;    1,000;   -4,430;20265,11000
 589,82;20442,230;   -6,670;   -4,310;20448,90000
 590,15;20138,140;   -0,430;    0,070;20138,57000
 590,48;20127,410;    4,590;    6,020;20122,82000
 590,82;19938,080;    3,490;    6,910;19934,59000
 591,15;19838,940;   -0,100;    5,820;19839,04000
 591,48;19830,370;   -0,760;    5,330;19831,13000
 591,82;19877,770;   -7,520;   -4,460;19885,29000
 592,15;19884,900;   -0,490;    4,680;19885,39000
 592,48;19602,680;    7,090;    0,670;19595,59000
 592,81;19448,160;   -1,470;   -1,340;19449,63000
 593,15;19386,770;    4,040;    4,290;19382,73000
 593,48;19264,840;    8,950;    6,390;19255,89000
 593,81;19424,600;   -2,600;    0,930;19427,20000
 594,15;19169,400;    1,750;    1,230;19167,65000
 594,48;19259,540;   -0,660;    1,520;19260,20000
 594,81;18782,290;    3,290;    2,870;18779,00000
 595,15;18898,410;    0,520;   -0,890;18897,89000
 595,48;18595,430;    1,530;    0,350;18593,90000
 595,81;18798,270;   -0,470;    1,370;18798,74000
 596,14;18523,110;   -2,450;    5,680;18525,56000
 596,48;18525,460;    1,030;    4,810;18524,43000
 596,81;18273,410;    6,040;    9,560;18267,37000
 597,14;18572,050;   -2,300;    3,810;18574,35000
 597,47;18625,320;   -1,490;    5,660;18626,81000
 597,81;18741,730;    0,290;    4,740;18741,44000
 598,14;18403,600;    5,650;    3,320;18397,95000
 598,47;18156,850;    1,710;   -0,680;18155,14000
 598,81;18041,410;    2,120;    8,210;18039,29000
 599,14;17914,760;    0,050;    2,020;17914,71000
 599,47;17759,350;    0,240;    3,760;17759,11000
 599,80;17684,480;    2,230;    6,230;17682,25000
 600,14;17474,120;    2,680;   -6,300;17471,44000
 600,47;17620,120;    2,210;    0,600;17617,91000
 600,80;17552,230;    1,830;   -3,960;17550,40000
 601,13;17577,330;    4,890;    6,140;17572,44000
 601,47;17258,720;    0,020;    0,460;17258,70000
 601,80;17133,490;    1,330;   -1,900;17132,16000
 602,13;17216,880;   -1,880;   -8,200;17218,76000
 602,47;17132,940;    3,970;   27,790;17128,97000
 602,80;16870,420;    4,720;   63,270;16865,70000
 603,13;16602,190;    2,080;    4,230;16600,11000
 603,46;16513,030;    7,660;    2,890;16505,37000
 603,80;16474,840;    1,880;   -2,950;16472,96000
 604,13;16410,070;   11,800;    2,570;16398,27000
 604,46;16566,290;    5,310;    0,400;16560,98000
 604,79;16390,430;   -2,930;    1,990;16393,36000
 605,13;16373,790;   -1,610;    7,270;16375,40000
 605,46;16264,740;    0,020;   -5,750;16264,72000
 605,79;16104,240;   -2,540;   -0,890;16106,78000
 606,12;15986,850;   -0,640;    4,530;15987,49000
 606,46;16125,410;   -2,940;    4,550;16128,35000
 606,79;15985,410;    6,180;    3,780;15979,23000
 607,12;16091,180;   -0,850;   -2,070;16092,03000
 607,45;15938,650;    6,060;    6,620;15932,59000
 607,79;15714,380;    2,250;    5,050;15712,13000
 608,12;15604,980;    1,830;    2,650;15603,15000
 608,45;15497,500;    0,050;    3,650;15497,45000
 608,78;15546,850;    4,080;    5,020;15542,77000
 609,11;15609,070;    4,160;    0,370;15604,91000
 609,45;15597,120;    0,320;    1,040;15596,80000
 609,78;15331,490;    1,330;    1,760;15330,16000
 610,11;15108,840;   -0,320;    5,670;15109,16000
 610,44;15127,660;    1,880;    0,160;15125,78000
 610,78;14745,000;    5,660;    0,420;14739,34000
 611,11;14745,990;    4,900;    6,070;14741,09000
 611,44;14670,670;    2,170;    3,780;14668,50000
 611,77;14720,170;   -0,490;    9,420;14720,66000
 612,11;14570,300;   -5,860;    1,400;14576,16000
 612,44;14634,790;   -1,010;   -1,570;14635,80000
 612,77;14733,060;    2,460;   -0,450;14730,60000
 613,10;14634,220;    4,610;    2,290;14629,61000
 613,43;14519,590;    4,360;    3,040;14515,23000
 613,77;14358,620;    4,340;   -1,690;14354,28000
 614,10;14346,140;    1,970;    2,630;14344,17000
 614,43;14232,480;   -6,890;    4,250;14239,37000
 614,76;14202,870;   -1,670;   -1,030;14204,54000
 615,10;14311,180;    3,270;    0,940;14307,91000
 615,43;14230,270;    4,850;   11,400;14225,42000
 615,76;14383,620;    1,390;    3,040;14382,23000
 616,09;14326,040;    2,640;    7,050;14323,40000
 616,42;14279,620;   -3,850;    3,430;14283,47000
 616,76;14010,190;    3,060;   -4,530;14007,13000
 617,09;14315,450;   -6,190;    3,030;14321,64000
 617,42;14166,180;    0,790;   -3,360;14165,39000
 617,75;14278,670;    1,480;   -5,410;14277,19000
 618,08;14645,860;   -0,980;    0,440;14646,84000
 618,42;14897,340;   -0,940;    2,150;14898,28000
 618,75;14894,620;   -0,540;   -0,500;14895,16000
 619,08;15071,960;    1,770;    1,430;15070,19000
 619,41;14781,740;    1,530;   -4,170;14780,21000
 619,74;14967,030;    1,800;    5,500;14965,23000
 620,08;14875,500;    6,940;   12,770;14868,56000
 620,41;15102,630;   -2,290;   -5,400;15104,92000
 620,74;15047,670;    0,480;    4,450;15047,19000
 621,07;14951,710;    3,820;    0,870;14947,89000
 621,40;14729,330;    3,250;    1,220;14726,08000
 621,74;14808,860;   -1,130;   -0,060;14809,99000
 622,07;14598,260;    6,100;    5,000;14592,16000
 622,40;14599,970;   -5,600;    3,220;14605,57000
 622,73;14508,940;   -0,530;    5,570;14509,47000
 623,06;14179,640;    0,500;   -2,860;14179,14000
 623,39;14115,630;   -2,320;    5,390;14117,95000
 623,73;13874,100;    2,180;    0,120;13871,92000
 624,06;13714,220;    3,700;    1,630;13710,52000
 624,39;13835,160;    0,830;    4,010;13834,33000
 624,72;13629,230;   -3,130;   10,210;13632,36000
 625,05;13625,550;    1,340;    3,570;13624,21000
 625,39;13472,440;    1,200;   -1,650;13471,24000
 625,72;13427,370;   -2,150;    7,260;13429,52000
 626,05;13367,960;   -2,270;    2,990;13370,23000
 626,38;13344,610;   -0,950;    7,380;13345,56000
 626,71;13129,470;    3,540;   -5,440;13125,93000
 627,04;13125,320;    0,420;    2,190;13124,90000
 627,38;13068,650;    1,320;    3,780;13067,33000
 627,71;13015,700;    4,500;   -3,000;13011,20000
 628,04;12891,590;   -0,290;    0,330;12891,88000
 628,37;12999,500;   -3,740;    8,330;13003,24000
 628,70;12869,110;    6,230;    2,340;12862,88000
 629,03;12850,300;   -2,390;    0,700;12852,69000
 629,37;12778,660;    3,010;    1,090;12775,65000
 629,70;12640,130;    1,910;    1,190;12638,22000
 630,03;12737,410;   -2,730;    2,910;12740,14000
 630,36;12718,430;    2,280;    0,930;12716,15000
 630,69;12566,630;    6,570;    4,610;12560,06000
 631,02;12590,970;   -2,730;   -0,060;12593,70000
 631,36;12558,110;   -1,610;   -1,810;12559,72000
 631,69;12552,000;    0,030;    0,190;12551,97000
 632,02;12434,980;    3,720;    2,650;12431,26000
 632,35;12465,140;   -5,580;    4,990;12470,72000
 632,68;12364,930;   -1,100;    1,420;12366,03000
 633,01;12235,150;   -1,800;   -0,120;12236,95000
 633,34;12108,220;    1,480;   -7,040;12106,74000
 633,68;12006,280;    4,610;   -2,400;12001,67000
 634,01;11979,070;    1,420;    2,460;11977,65000
 634,34;11947,130;   -6,170;    1,250;11953,30000
 634,67;11887,350;    1,600;    4,360;11885,75000
 635,00;11664,280;    4,200;   -0,270;11660,08000
 635,33;11627,180;    3,600;   -4,520;11623,58000
 635,66;11712,480;   -4,180;    1,600;11716,66000
 636,00;11454,520;   -3,060;    1,520;11457,58000
 636,33;11281,520;    5,700;    2,600;11275,82000
 636,66;11230,450;    0,360;    2,100;11230,09000
 636,99;11101,770;   -8,800;    5,180;11110,57000
 637,32;11077,940;    0,830;    3,410;11077,11000
 637,65;11008,340;   -1,270;   -0,530;11009,61000
 637,98;10776,450;    3,650;    0,300;10772,80000
 638,32;10656,690;   -0,840;    2,560;10657,53000
 638,65;10556,150;    1,660;    7,760;10554,49000
 638,98;10532,360;   -1,580;   -2,870;10533,94000
 639,31;10477,020;   -1,820;   -4,230;10478,84000
 639,64;10453,200;    1,170;    0,830;10452,03000
 639,97;10395,480;   -2,040;    5,530;10397,52000
 640,30;10331,880;    0,720;   -2,140;10331,16000
 640,63;10342,450;    2,250;    1,570;10340,20000
 640,97;10281,760;   -1,310;    1,110;10283,07000
 641,30;10094,630;    3,990;    7,220;10090,64000
 641,63;10061,580;    0,450;    2,240;10061,13000
 641,96; 9932,140;   -1,540;   -2,020;9933,68000
 642,29; 9893,000;    0,200;    5,920;9892,80000
 642,62; 9682,340;   -0,500;    1,470;9682,84000
 642,95; 9687,460;    6,400;    1,970;9681,06000
 643,28; 9668,850;   -0,510;    4,550;9669,36000
 643,61; 9530,770;    1,780;   -0,630;9528,99000
 643,95; 9450,580;   -2,590;   -2,100;9453,17000
 644,28; 9427,340;    1,220;    4,670;9426,12000
 644,61; 9280,830;    5,640;    2,590;9275,19000
 644,94; 9212,640;   -0,110;    2,720;9212,75000
 645,27; 9161,010;   -2,000;   -4,700;9163,01000
 645,60; 9117,560;    2,950;    7,200;9114,61000
 645,93; 9082,080;    0,460;   -3,130;9081,62000
 646,26; 9113,720;    5,650;   -1,160;9108,07000
 646,59; 9001,920;   -1,550;    8,770;9003,47000
 646,92; 9084,300;    0,210;   -0,800;9084,09000
 647,26; 9014,690;   -5,810;   -0,400;9020,50000
 647,59; 8972,510;    5,180;    2,300;8967,33000
 647,92; 8951,800;   -1,910;    1,320;8953,71000
 648,25; 8751,870;    4,950;   -0,750;8746,92000
 648,58; 8649,920;    2,400;    7,320;8647,52000
 648,91; 8486,380;    3,540;   -1,540;8482,84000
 649,24; 8340,390;    6,380;    1,190;8334,01000
 649,57; 8267,640;    2,270;    3,270;8265,37000
 649,90; 8186,230;    2,820;   10,310;8183,41000
 650,23; 8185,390;    5,260;    4,800;8180,13000
 650,56; 8037,840;    6,300;    1,150;8031,54000
 650,90; 8065,960;    4,220;   -4,310;8061,74000
 651,23; 8066,610;    0,340;    1,350;8066,27000
 651,56; 8153,160;    3,410;    3,210;8149,75000
 651,89; 8109,550;   -3,630;    5,780;8113,18000
 652,22; 8209,670;    5,340;   -3,950;8204,33000
 652,55; 8226,780;   -1,690;   10,250;8228,47000
 652,88; 8390,980;    2,810;   -0,760;8388,17000
 653,21; 8498,170;   -0,980;    6,810;8499,15000
 653,54; 8758,460;   -1,250;   -5,450;8759,71000
 653,87; 8931,490;    5,870;   -1,370;8925,62000
 654,20; 9353,990;   -3,490;    8,700;9357,48000
 654,53; 9577,520;    5,390;    1,880;9572,13000
 654,86; 9868,120;    2,970;   -0,280;9865,15000
 655,20; 9997,970;   -1,370;    2,020;9999,34000
 655,53;10096,230;   -0,100;    0,940;10096,33000
 655,86;10145,580;    0,770;    5,800;10144,81000
 656,19;10341,170;    2,690;   -4,610;10338,48000
 656,52;10278,470;    2,660;    2,500;10275,81000
 656,85;10253,990;    1,210;   -3,520;10252,78000
 657,18;10229,340;    8,610;    2,350;10220,73000
 657,51;10141,410;    1,420;    1,360;10139,99000
 657,84;10095,130;   -0,300;    3,900;10095,43000
 658,17;10159,260;    0,000;    2,210;10159,26000
 658,50;10457,570;   -3,710;    0,070;10461,28000
 658,83;10793,150;    2,230;   -1,990;10790,92000
 659,16;11098,540;   -3,120;    2,010;11101,66000
 659,49;11149,990;   -4,500;    3,010;11154,49000
 659,82;10810,630;    5,030;    4,520;10805,60000
 660,15;10211,880;    1,100;   -0,950;10210,78000
 660,48; 9379,270;   -0,990;   -2,180;9380,26000
 660,81; 8714,970;    3,460;    0,810;8711,51000
 661,15; 8282,760;    5,630;    4,170;8277,13000
 661,48; 8238,590;   -3,050;   -3,960;8241,64000
 661,81; 8234,650;    0,410;    9,950;8234,24000
 662,14; 8117,180;    0,160;   -0,980;8117,02000
 662,47; 7854,470;    0,610;    1,520;7853,86000
 662,80; 7795,340;    0,750;    3,350;7794,59000
 663,13; 7689,770;   -3,690;    7,380;7693,46000
 663,46; 7643,770;   -5,480;    2,220;7649,25000
 663,79; 7563,870;   -1,050;    6,740;7564,92000
 664,12; 7531,160;    3,380;    0,870;7527,78000
 664,45; 7423,440;    7,770;   -0,860;7415,67000
 664,78; 7397,910;    0,440;   -2,110;7397,47000
 665,11; 7447,410;    0,640;    3,620;7446,77000
 665,44; 7426,890;    4,070;    2,350;7422,82000
 665,77; 7367,390;    4,860;    5,630;7362,53000
 666,10; 7369,930;    4,110;    5,000;7365,82000
 666,43; 7295,750;   -4,850;   -0,720;7300,60000
 666,76; 7283,450;    0,470;    1,910;7282,98000
 667,09; 7196,410;   -0,990;    0,790;7197,40000
 667,42; 7220,410;    2,100;    0,390;7218,31000
 667,75; 7241,830;    6,180;   -0,330;7235,65000
 668,08; 7232,950;   -7,910;    7,960;7240,86000
 668,41; 7210,690;    1,540;    0,800;7209,15000
 668,74; 7085,230;   -1,100;    1,150;7086,33000
 669,07; 7023,310;   -1,420;    1,860;7024,73000
 669,40; 6944,810;    0,970;    2,380;6943,84000
 669,73; 7011,310;    8,590;    4,600;7002,72000
 670,06; 6943,460;    2,900;   -5,490;6940,56000
 670,39; 6791,160;   -1,080;   -2,420;6792,24000
 670,72; 6816,930;    4,430;    1,250;6812,50000
 671,05; 6738,600;   -1,650;   -0,450;6740,25000
 671,38; 6849,480;   -0,310;    6,620;6849,79000
 671,71; 6850,600;   -1,540;    4,900;6852,14000
 672,04; 6807,750;    3,250;   -2,120;6804,50000
 672,37; 6714,480;   -0,850;    4,390;6715,33000
 672,70; 6685,520;    1,960;    4,480;6683,56000
 673,03; 6638,170;    1,690;    6,180;6636,48000
 673,36; 6603,210;    0,610;   -6,710;6602,60000
 673,69; 6574,970;    4,290;   29,090;6570,68000
 674,02; 6646,130;    0,030;   55,770;6646,10000
 674,35; 6540,330;   -2,290;    9,490;6542,62000
 674,68; 6502,910;   -2,750;    3,540;6505,66000
 675,01; 6378,810;    1,060;    2,080;6377,75000
 675,34; 6372,190;   -0,760;   -2,220;6372,95000
 675,67; 6288,950;    2,450;    2,970;6286,50000
 676,00; 6217,390;    1,180;   -1,250;6216,21000
 676,33; 6123,750;    1,220;   -6,420;6122,53000
 676,66; 6036,290;    1,050;   -0,150;6035,24000
 676,99; 5900,690;    5,420;    7,890;5895,27000
 677,32; 5903,880;    1,780;   -1,880;5902,10000
 677,65; 5934,960;   -0,840;   -4,020;5935,80000
 677,98; 5850,310;   -3,640;    3,480;5853,95000
 678,31; 5767,390;    0,660;    6,580;5766,73000
 678,64; 5688,770;    5,090;   -4,210;5683,68000
 678,97; 5629,980;    0,020;    2,890;5629,96000
 679,30; 5606,020;    1,660;   -0,040;5604,36000
 679,63; 5587,830;    3,330;    5,790;5584,50000
 679,96; 5707,530;   -2,380;   -1,410;5709,91000
 680,29; 5561,030;    2,590;    1,260;5558,44000
 680,62; 5556,740;    4,840;    5,810;5551,90000
 680,95; 5655,040;    3,280;   -0,190;5651,76000
 681,28; 5768,810;    4,640;   -2,040;5764,17000
 681,61; 5888,690;    3,550;   -1,620;5885,14000
 681,94; 6078,390;   -2,160;    0,000;6080,55000
 682,27; 6122,190;   -4,080;    0,170;6126,27000
 682,60; 6184,730;    0,530;    4,920;6184,20000
 682,93; 6129,810;   -2,870;    3,030;6132,68000
 683,26; 6042,150;   -2,260;    2,380;6044,41000
 683,59; 5977,730;    1,770;   -0,460;5975,96000
 683,92; 5834,910;   -2,020;    0,570;5836,93000
 684,24; 5710,110;    1,490;    7,000;5708,62000
 684,57; 5743,320;    2,760;    3,390;5740,56000
 684,90; 5650,020;    4,260;    6,430;5645,76000
 685,23; 5626,210;    0,880;   -2,620;5625,33000
 685,56; 5623,560;   -0,010;   -1,780;5623,57000
 685,89; 5689,820;    2,410;    1,720;5687,41000
 686,22; 5748,780;   -4,190;    4,030;5752,97000
 686,55; 5721,040;   -2,320;    0,730;5723,36000
 686,88; 5790,830;   -1,310;   11,380;5792,14000
 687,21; 5819,860;   -6,960;   -0,430;5826,82000
 687,54; 5843,000;    7,240;    8,200;5835,76000
 687,87; 5914,340;    5,190;    4,250;5909,15000
 688,20; 5951,200;   -9,010;    2,520;5960,21000
 688,53; 5919,790;    1,410;    5,130;5918,38000
 688,86; 5791,660;    1,560;    3,570;5790,10000
 689,19; 5789,300;    6,120;   -0,020;5783,18000
 689,52; 5661,490;   -1,210;    5,530;5662,70000
 689,85; 5581,770;   -5,280;   -1,290;5587,05000
 690,17; 5446,430;   -0,120;    2,570;5446,55000
 690,50; 5327,370;    1,360;    2,660;5326,01000
 690,83; 5145,350;    2,630;    5,740;5142,72000
 691,16; 4987,390;    0,690;    3,030;4986,70000
 691,49; 4896,530;    1,640;    5,260;4894,89000
 691,82; 4756,340;   -2,250;   -4,120;4758,59000
 692,15; 4599,120;   -1,210;    7,820;4600,33000
 692,48; 4589,690;   -0,230;    5,570;4589,92000
 692,81; 4504,930;    0,520;    4,270;4504,41000
 693,14; 4422,510;    3,270;    4,640;4419,24000
 693,47; 4344,060;   -1,460;   -1,070;4345,52000
 693,80; 4258,570;   -0,750;   -2,960;4259,32000
 694,13; 4117,380;   -8,170;    5,080;4125,55000
 694,46; 4080,110;   33,810;    0,310;4046,30000
 694,78; 4070,470;   67,530;    0,650;4002,94000
 695,11; 3987,320;    6,320;   -4,040;3981,00000
 695,44; 3831,890;    4,260;    5,590;3827,63000
 695,77; 3776,560;    2,250;    0,000;3774,31000
 696,10; 3689,150;    4,380;    3,060;3684,77000
 696,43; 3673,010;   -4,470;    2,670;3677,48000
 696,76; 3627,410;   -8,130;    4,400;3635,54000
 697,09; 3612,000;    1,160;    0,650;3610,84000
 697,42; 3555,760;   -7,610;    2,390;3563,37000
 697,75; 3558,990;    1,290;   -8,840;3557,70000
 698,08; 3593,830;   -5,320;    5,130;3599,15000
 698,40; 3602,050;   -5,310;    2,210;3607,36000
 698,73; 3581,310;    3,490;    7,900;3577,82000
 699,06; 3566,440;   -1,900;    1,350;3568,34000
 699,39; 3460,980;    8,530;   -1,150;3452,45000
 699,72; 3410,330;   -0,830;   -1,240;3411,16000
 700,05; 3359,260;   -1,820;    2,270;3361,08000
 700,38; 3345,640;    3,180;    6,910;3342,46000
 700,71; 3245,360;   -1,720;    4,100;3247,08000
 701,04; 3187,730;   -1,370;   -1,360;3189,10000
 701,36; 3108,740;    3,130;    6,320;3105,61000
 701,69; 3088,580;    1,430;    3,590;3087,15000
 702,02; 3052,490;   -0,210;   -2,490;3052,70000
 702,35; 3034,830;    4,190;   -5,070;3030,64000
 702,68; 2987,230;    4,700;    1,660;2982,53000
 703,01; 3026,540;    1,660;    2,080;3024,88000
 703,34; 2980,760;  -11,190;    0,800;2991,95000
 703,67; 2918,550;    1,870;    1,750;2916,68000
 704,00; 2813,600;   -5,410;    6,960;2819,01000
 704,32; 2803,100;   -1,480;   -1,420;2804,58000
 704,65; 2812,060;    6,870;    6,280;2805,19000
 704,98; 2807,070;   -7,060;    1,350;2814,13000
 705,31; 2819,780;    2,170;    1,580;2817,61000
 705,64; 2809,160;   -1,180;    1,270;2810,34000
 705,97; 2789,990;    2,810;    4,820;2787,18000
 706,30; 2761,540;   -3,820;   -1,790;2765,36000
 706,63; 2725,680;   -1,290;    6,080;2726,97000
 706,95; 2789,070;   -1,320;   -2,710;2790,39000
 707,28; 2806,210;   -5,350;    7,860;2811,56000
 707,61; 2798,270;   -1,070;    1,370;2799,34000
 707,94; 2832,600;    5,040;   10,000;2827,56000
 708,27; 2863,200;    6,210;   -1,360;2856,99000
 708,60; 2876,310;    3,640;   -2,070;2872,67000
 708,93; 2880,710;    2,710;    2,700;2878,00000
 709,25; 2939,090;   -0,770;    6,350;2939,86000
 709,58; 3006,460;    0,880;    3,760;3005,58000
 709,91; 3049,040;   -1,500;    5,090;3050,54000
 710,24; 3089,160;    1,390;    3,920;3087,77000
 710,57; 3121,700;    7,850;    2,830;3113,85000
 710,90; 3176,290;   -0,610;    3,620;3176,90000
 711,23; 3185,210;   -9,040;    8,040;3194,25000
 711,55; 3295,510;    3,950;   -0,150;3291,56000
 711,88; 3297,000;    3,550;    1,210;3293,45000
 712,21; 3337,400;    1,630;   -3,440;3335,77000
 712,54; 3272,730;    4,800;   -0,220;3267,93000
 712,87; 3240,450;    0,670;    9,900;3239,78000
 713,20; 3192,450;   -2,580;    5,450;3195,03000
 713,52; 3136,990;    2,090;   -3,240;3134,90000
 713,85; 3068,390;   -0,960;    5,850;3069,35000
 714,18; 3024,070;    0,730;    3,060;3023,34000
 714,51; 2982,660;    0,980;    3,810;2981,68000
 714,84; 2902,280;   -0,540;    1,920;2902,82000
 715,17; 2798,940;    0,250;    8,430;2798,69000
 715,50; 2715,500;    0,320;    3,010;2715,18000
 715,82; 2656,710;    3,740;    5,880;2652,97000
 716,15; 2631,640;   -2,290;   -4,590;2633,93000
 716,48; 2563,340;   -1,750;    3,130;2565,09000
 716,81; 2494,300;    1,380;   -5,980;2492,92000
 717,14; 2397,820;    1,360;    0,570;2396,46000
 717,47; 2331,820;    0,700;   -0,180;2331,12000
 717,79; 2298,270;    0,620;    8,090;2297,65000
 718,12; 2238,240;    2,490;    1,360;2235,75000
 718,45; 2202,200;   -1,400;    3,060;2203,60000
 718,78; 2195,180;    2,300;    1,190;2192,88000
 719,11; 2158,800;    0,750;    2,810;2158,05000
 719,43; 2150,960;    3,410;    1,390;2147,55000
 719,76; 2109,470;   -0,540;    4,150;2110,01000
 720,09; 2068,100;   -1,540;    4,260;2069,64000
 720,42; 2010,780;    2,180;    4,350;2008,60000
 720,75; 1922,270;    3,310;    3,110;1918,96000
 721,08; 1925,790;    3,520;    1,510;1922,27000
 721,40; 1899,650;    3,030;    3,980;1896,62000
 721,73; 1863,900;   -1,940;   -1,970;1865,84000
 722,06; 1813,300;   -2,140;   -2,640;1815,44000
 722,39; 1797,200;   -0,790;    7,670;1797,99000
 722,72; 1778,550;    7,080;   -3,930;1771,47000
 723,04; 1793,300;    0,230;    1,320;1793,07000
 723,37; 1786,750;   -0,660;    3,070;1787,41000
 723,70; 1781,010;    1,360;   -0,900;1779,65000
 724,03; 1773,540;   -3,600;   -6,630;1777,14000
 724,36; 1750,730;    7,940;    3,020;1742,79000
 724,68; 1731,270;   -1,570;   -1,560;1732,84000
 725,01; 1734,040;    2,550;    1,850;1731,49000
 725,34; 1745,610;    2,250;   -0,960;1743,36000
 725,67; 1752,050;    3,350;    2,480;1748,70000
 726,00; 1778,800;   -1,800;    7,750;1780,60000
 726,32; 1779,550;   -0,270;    3,050;1779,82000
 726,65; 1800,330;   -0,450;   -0,760;1800,78000
 726,98; 1809,200;    0,750;    3,880;1808,45000
 727,31; 1820,030;    0,670;    0,160;1819,36000
 727,63; 1858,550;    6,120;    8,020;1852,43000
 727,96; 1872,670;   -2,070;    3,610;1874,74000
 728,29; 1882,580;    2,390;   -0,610;1880,19000
 728,62; 1876,760;    3,410;    1,180;1873,35000
 728,95; 1837,220;   -0,720;   -0,820;1837,94000
 729,27; 1844,040;    2,340;    7,960;1841,70000
 729,60; 1845,640;   -6,270;   -1,710;1851,91000
 729,93; 1833,020;    0,100;   -4,110;1832,92000
 730,26; 1866,250;   -3,420;    8,560;1869,67000
 730,58; 1876,680;    3,090;   -1,830;1873,59000
 730,91; 1896,790;   -0,030;    4,510;1896,82000
 731,24; 1918,030;   -3,290;    1,140;1921,32000
 731,57; 1914,630;    1,710;    3,090;1912,92000
 731,90; 1943,510;   -0,330;   -6,190;1943,84000
 732,22; 1938,590;   -0,860;    6,800;1939,45000
 732,55; 1947,550;    0,890;    3,110;1946,66000
 732,88; 1950,210;   -0,290;    0,740;1950,50000
 733,21; 1892,130;   -1,130;   10,850;1893,26000
 733,53; 1842,150;   -1,710;    0,450;1843,86000
 733,86; 1771,690;    1,860;    3,730;1769,83000
 734,19; 1687,610;   -2,560;    3,450;1690,17000
 734,52; 1624,950;    2,480;    1,540;1622,47000
 734,84; 1588,110;    3,680;    1,440;1584,43000
 735,17; 1530,880;    4,160;   -1,320;1526,72000
 735,50; 1488,540;    2,430;   -0,850;1486,11000
 735,83; 1429,720;    7,650;   -1,650;1422,07000
 736,15; 1417,180;    5,460;    2,490;1411,72000
 736,48; 1387,590;   -6,130;    5,340;1393,72000
 736,81; 1368,150;   -1,950;    1,350;1370,10000
 737,14; 1354,510;    1,120;   -4,140;1353,39000
 737,46; 1356,920;    0,850;    4,840;1356,07000
 737,79; 1368,770;    4,280;   -2,310;1364,49000
 738,12; 1354,980;    0,320;    6,120;1354,66000
 738,45; 1374,830;    3,470;    1,350;1371,36000
 738,77; 1396,340;    5,090;    4,940;1391,25000
 739,10; 1406,230;   -9,000;   -0,690;1415,23000
 739,43; 1396,410;    4,380;   -0,540;1392,03000
 739,76; 1441,370;    0,640;    1,650;1440,73000
 740,08; 1424,690;    7,770;    0,290;1416,92000
 740,41; 1411,130;    6,550;    0,300;1404,58000
 740,74; 1396,330;    9,550;    3,160;1386,78000
 741,07; 1379,250;   -0,090;    0,280;1379,34000
 741,39; 1374,790;    0,580;    5,360;1374,21000
 741,72; 1330,330;   -0,130;   -2,020;1330,46000
 742,05; 1282,190;    0,150;    3,630;1282,04000
 742,37; 1256,240;   -3,900;    0,320;1260,14000
 742,70; 1239,640;    3,860;    0,610;1235,78000
 743,03; 1188,400;   -4,210;   -2,160;1192,61000
 743,36; 1170,510;   -5,250;    7,750;1175,76000
 743,68; 1136,120;   -2,060;   -6,600;1138,18000
 744,01; 1090,420;    3,030;   -4,660;1087,39000
 744,34; 1079,460;    0,800;   35,160;1078,66000
 744,67; 1056,940;    1,590;   59,020;1055,35000
 744,99; 1036,210;   -2,250;    0,210;1038,46000
 745,32; 1030,260;    8,190;    3,980;1022,07000
 745,65; 1000,280;   -1,040;   -0,900;1001,32000
 745,97;  985,860;   -0,100;    1,530;985,96000
 746,30;  947,260;    0,600;   -5,220;946,66000
 746,63;  948,830;   -2,020;    6,550;950,85000
 746,96;  924,240;   -8,070;    1,040;932,31000
 747,28;  927,930;    0,240;    1,440;927,69000
 747,61;  919,790;    0,190;    1,610;919,60000
 747,94;  925,390;   -2,000;    2,830;927,39000
 748,26;  937,450;    0,220;    0,100;937,23000
 748,59;  932,730;    5,620;    8,660;927,11000
 748,92;  934,410;    0,240;   -3,870;934,17000
 749,24;  931,810;    3,770;    6,190;928,04000
 749,57;  935,680;    0,900;   -2,390;934,78000
 749,90;  919,800;   -2,540;    4,970;922,34000
 750,23;  891,540;   -3,540;   -0,060;895,08000
 750,55;  899,540;    0,860;    2,610;898,68000
 750,88;  877,110;    2,460;    3,380;874,65000
 751,21;  862,510;    1,930;    1,980;860,58000
 751,53;  842,060;    5,830;    0,920;836,23000
 751,86;  834,490;   12,480;    6,040;822,01000
 752,19;  842,120;   -2,060;    7,680;844,18000
 752,51;  840,910;   -5,500;    6,440;846,41000
 752,84;  816,650;   -1,750;    0,490;818,40000
 753,17;  805,880;    2,900;    0,200;802,98000
 753,49;  796,650;    2,690;   -3,910;793,96000
 753,82;  788,420;    2,790;    5,610;785,63000
 754,15;  781,630;    2,270;    1,120;779,36000
 754,47;  762,940;    7,130;    9,680;755,81000
 754,80;  761,390;   -0,090;    1,190;761,48000
 755,13;  754,540;   -1,940;   -4,170;756,48000
 755,45;  739,930;    0,720;    1,490;739,21000
 755,78;  728,070;   -0,180;    3,250;728,25000
 756,11;  718,630;   -4,260;    7,370;722,89000
 756,43;  711,850;   -1,680;    0,310;713,53000
 756,76;  714,460;    5,500;    2,100;708,96000
 757,09;  707,840;    3,150;    3,620;704,69000
 757,41;  719,300;   -0,370;    4,740;719,67000
 757,74;  714,630;    0,970;    6,360;713,66000
 758,07;  699,540;    1,920;    4,440;697,62000
 758,39;  699,100;    4,240;    5,440;694,86000
 758,72;  703,190;   -1,630;    0,920;704,82000
 759,05;  700,070;    2,950;    2,200;697,12000
 759,37;  698,240;   -1,690;   -2,890;699,93000
 759,70;  701,540;   10,300;   -2,400;691,24000
 760,03;  688,050;   -1,510;    6,060;689,56000
 760,35;  680,930;    1,750;    6,640;679,18000
 760,68;  704,130;   -0,350;    1,000;704,48000
 761,01;  692,620;   -1,870;    6,920;694,49000
 761,33;  679,520;   -1,090;    2,090;680,61000
 761,66;  706,540;   -5,350;    2,630;711,89000
 761,99;  721,340;   -2,760;    3,130;724,10000
 762,31;  762,180;    0,420;    1,450;761,76000
 762,64;  849,120;    2,970;    0,760;846,15000
 762,97;  964,750;    1,600;   -0,440;963,15000
 763,29; 1147,780;   -5,020;   -0,550;1152,80000
 763,62; 1287,010;   -0,890;    7,820;1287,90000
 763,95; 1351,320;   -0,600;    1,340;1351,92000
 764,27; 1287,920;   -1,500;    3,170;1289,42000
 764,60; 1162,140;    2,090;   -4,100;1160,05000
 764,92; 1014,300;    3,180;    1,260;1011,12000
 765,25;  890,210;   -1,390;    8,770;891,60000
 765,58;  778,290;   -0,740;   -0,640;779,03000
 765,90;  702,630;    0,560;    4,990;702,07000
 766,23;  648,060;   -1,440;    4,760;649,50000
 766,56;  607,790;   -2,030;   -3,620;609,82000
 766,88;  579,060;    0,960;    3,820;578,10000
 767,21;  552,370;   -7,880;    2,070;560,25000
 767,53;  536,300;   -6,250;    0,990;542,55000
 767,86;  509,600;   -2,410;    4,890;512,01000
 768,19;  493,420;   -3,710;    4,780;497,13000
 768,51;  475,340;   -2,320;    3,960;477,66000
 768,84;  451,660;    0,170;    1,170;451,49000
 769,17;  436,710;   -1,890;    4,060;438,60000
 769,49;  429,450;    5,700;   -3,840;423,75000
 769,82;  427,730;    2,760;   -5,320;424,97000
 770,14;  410,860;    2,530;    3,870;408,33000
 770,47;  406,030;   -2,540;    5,330;408,57000
 770,80;  396,380;    2,170;   -2,120;394,21000
 771,12;  381,200;   -0,420;    3,950;381,62000
 771,45;  371,670;   -1,570;    2,340;373,24000
 771,77;  359,880;    2,620;    7,270;357,26000
 772,10;  362,650;    3,650;   -3,300;359,00000
 772,43;  356,640;    1,630;    2,510;355,01000
 772,75;  355,720;    0,260;   -2,280;355,46000
 773,08;  336,000;   -0,100;   -0,720;336,10000
 773,40;  325,700;    5,720;    0,690;319,98000
 773,73;  324,170;   -1,250;    3,470;325,42000
 774,06;  313,080;    2,910;    1,330;310,17000
 774,38;  303,540;    7,260;    0,760;296,28000
 774,71;  297,900;    4,870;    8,490;293,03000
 775,03;  287,650;   -2,970;    4,040;290,62000
 775,36;  292,520;    6,920;    1,510;285,60000
 775,69;  274,730;    0,510;   -2,440;274,22000
 776,01;  284,970;    6,930;    8,540;278,04000
 776,34;  275,140;    4,880;    3,570;270,26000
 776,66;  275,140;   -2,650;    1,640;277,79000
 776,99;  262,220;    2,070;   -1,700;260,15000
 777,32;  261,160;    1,110;    1,210;260,05000
 777,64;  263,830;    3,540;   -2,660;260,29000
 777,97;  261,100;   -0,840;    2,580;261,94000
 778,29;  245,990;    1,050;    0,670;244,94000
 778,62;  250,090;    7,560;    0,590;242,53000
 778,94;  234,890;    7,890;   -2,060;227,00000
 779,27;  230,880;   -0,640;   -0,810;231,52000
 779,60;  233,660;   -7,380;   -0,800;241,04000
 779,92;  227,350;    4,210;    5,630;223,14000
 780,25;  234,040;   -6,290;    1,370;240,33000
 780,57;  225,610;    2,040;   -1,900;223,57000
 780,90;  228,520;   -2,830;   -0,400;231,35000
 781,22;  221,750;    6,240;    2,550;215,51000
 781,55;  214,710;    3,900;    1,740;210,81000
 781,88;  218,980;   -2,170;   -6,260;221,15000
 782,20;  216,360;    7,380;   -1,300;208,98000
 782,53;  208,250;    3,950;    3,670;204,30000
 782,85;  207,640;   -3,880;   -5,360;211,52000
 783,18;  207,410;   -2,630;    2,840;210,04000
 783,50;  199,310;   -3,040;    0,350;202,35000
 783,83;  195,780;   -1,050;    0,660;196,83000
 784,15;  190,080;    0,980;    3,330;189,10000
 784,48;  185,590;    6,680;    4,600;178,91000
 784,81;  181,860;   -2,590;   -5,350;184,45000
 785,13;  185,430;    3,960;    0,400;181,47000
 785,46;  176,320;    2,600;   -0,950;173,72000
 785,78;  175,350;    1,450;    7,470;173,90000
 786,11;  171,740;    3,730;    3,530;168,01000
 786,43;  180,240;   -0,840;   10,760;181,08000
 786,76;  179,020;   -4,760;    2,400;183,78000
 787,08;  184,110;   -2,530;    3,910;186,64000
 787,41;  187,910;    2,130;   -0,790;185,78000
 787,74;  193,560;   -0,570;    0,400;194,13000
 788,06;  205,800;   -2,220;    1,680;208,02000
 788,39;  220,800;   -1,360;    5,840;222,16000
 788,71;  221,170;    0,840;   -3,830;220,33000
 789,04;  221,910;   -5,030;    2,920;226,94000
 789,36;  211,720;    3,420;   -0,020;208,30000
 789,69;  208,350;   -0,180;    3,230;208,53000
 790,01;  192,150;    1,390;   10,890;190,76000
 790,34;  183,020;    6,540;    2,500;176,48000
 790,66;  171,690;    2,670;   -2,490;169,02000
 790,99;  158,150;   -3,440;    5,580;161,59000
 791,31;  157,720;   -4,710;    6,140;162,43000
 791,64;  153,790;   -5,650;   -4,470;159,44000
 791,96;  142,810;   -1,520;    6,380;144,33000
 792,29;  139,780;    1,370;    5,650;138,41000
 792,61;  137,000;    1,340;    0,020;135,66000
 792,94;  135,380;    2,830;    5,160;132,55000
 793,26;  127,780;    3,690;   -0,200;124,09000
 793,59;  123,450;   -1,530;    9,690;124,98000
 793,92;  117,420;   -1,850;    1,540;119,27000
 794,24;  127,500;    1,550;    5,100;125,95000
 794,57;  123,220;   -2,590;   -5,260;125,81000
 794,89;  126,790;   -0,400;   -0,480;127,19000
 795,22;  129,340;   -2,430;    2,220;131,77000
 795,54;  128,080;    6,640;    7,430;121,44000
 795,87;  137,520;    4,310;    0,880;133,21000
 796,19;  138,060;    7,020;    6,260;131,04000
 796,52;  139,810;   -4,320;    5,170;144,13000
 796,84;  136,950;    1,410;    1,760;135,54000
 797,17;  140,290;    5,020;   -3,080;135,27000
 797,49;  130,030;    0,950;    0,780;129,08000
 797,82;  125,090;   -1,770;    2,090;126,86000
 798,14;  125,010;   -1,940;    2,030;126,95000
 798,47;  116,030;    0,890;    0,490;115,14000
 798,79;  118,690;    0,390;   -0,860;118,30000
 799,12;  110,570;   -3,120;   -2,310;113,69000
 799,44;  103,890;    0,150;   -1,110;103,74000
 799,77;   96,520;    3,110;   -1,440;93,41000
 800,09;  102,800;   -0,240;   10,240;103,04000
 800,41;   99,010;    5,960;   -2,340;93,05000
 800,74;   93,100;   -3,240;    3,450;96,34000
 801,06;   95,610;    4,800;   -7,190;90,81000
 801,39;   94,910;    4,170;    2,400;90,74000
 801,71;   81,840;    2,600;   -3,940;79,24000
 802,04;   94,480;   -0,840;    4,240;95,32000
 802,36;   78,250;    3,480;   -2,970;74,77000
 802,69;   81,310;    2,180;   -4,430;79,13000
 803,01;   77,740;   -2,870;    0,510;80,61000
 803,34;   80,750;    2,540;   -2,400;78,21000
 803,66;   72,320;    2,340;    3,190;69,98000
 803,99;   68,940;    0,790;    2,060;68,15000
 804,31;   75,580;    4,380;    4,070;71,20000
 804,64;   74,490;   -0,540;    3,730;75,03000
 804,96;   69,730;   -0,860;    3,880;70,59000
 805,29;   77,210;    0,370;    6,430;76,84000
 805,61;   70,150;   -0,800;    1,440;70,95000
 805,94;   70,670;    1,950;    0,290;68,72000
 806,26;   66,710;   -1,700;    3,510;68,41000
 806,58;   70,430;    0,910;   -2,160;69,52000
 806,91;   66,580;   -1,220;    0,750;67,80000
 807,23;   69,660;    5,410;    2,050;64,25000
 807,56;   61,530;   -3,270;    6,540;64,80000
 807,88;   67,410;   -0,920;    8,290;68,33000
 808,21;   71,360;   -1,740;   -5,460;73,10000
 808,53;   66,670;    1,580;    1,340;65,09000
 808,86;   60,210;    1,180;   -5,240;59,03000
 809,18;   63,860;    0,870;    0,450;62,99000
 809,51;   71,730;    2,350;   -5,160;69,38000
 809,83;   63,780;    4,250;    5,870;59,53000
 810,15;   60,350;   -0,370;    5,920;60,72000
 810,48;   59,730;   -1,250;   -2,210;60,98000
 810,80;   52,220;   -2,200;    2,710;54,42000
 811,13;   63,530;   -2,270;    1,330;65,80000
 811,45;   60,040;   -3,240;    4,280;63,28000
 811,78;   57,440;    3,530;   -1,820;53,91000
 812,10;   54,620;    0,310;   -1,550;54,31000
 812,43;   53,400;    0,640;   -0,300;52,76000
 812,75;   51,950;   -9,020;   -0,680;60,97000
 813,07;   53,470;    3,480;   -2,030;49,99000
 813,40;   54,090;   -4,990;    0,510;59,08000
 813,72;   48,470;    5,100;    2,300;43,37000
 814,05;   52,340;    3,130;  -10,090;49,21000
 814,37;   55,720;    7,280;   31,260;48,44000
 814,70;   49,830;   -9,200;   61,550;59,03000
 815,02;   51,380;    4,050;    5,520;47,33000
 815,34;   45,950;    2,490;    6,800;43,46000
 815,67;   51,150;   -3,680;   -0,140;54,83000
 815,99;   50,410;    4,840;    9,640;45,57000
 816,32;   47,150;   -0,100;    8,350;47,25000
 816,64;   41,970;    2,030;    2,190;39,94000
 816,96;   42,360;    1,140;    2,150;41,22000
 817,29;   49,180;    6,380;    5,700;42,80000
 817,61;   51,890;   -3,290;   -0,090;55,18000
 817,94;   42,530;    4,830;   -4,630;37,70000
 818,26;   47,270;    2,750;    0,990;44,52000
 818,59;   48,980;   -0,870;    5,280;49,85000
 818,91;   58,590;    1,340;    8,430;57,25000
 819,23;   57,780;   -1,380;    0,910;59,16000
 819,56;   62,230;    0,590;    3,240;61,64000
 819,88;   68,040;    0,650;   -7,150;67,39000
 820,21;   91,140;    3,880;    3,060;87,26000
 820,53;  101,380;   -1,410;   -2,300;102,79000
 820,85;  128,610;   -3,190;    0,780;131,80000
 821,18;  158,700;   -1,950;    3,130;160,65000
 821,50;  235,640;   -3,380;    3,530;239,02000
 821,83;  351,210;    3,920;    7,580;347,29000
 822,15;  504,350;    2,710;    7,190;501,64000
 822,47;  635,820;    0,470;    7,210;635,35000
 822,80;  695,210;    3,530;   -0,170;691,68000
 823,12;  658,220;    1,650;   -0,530;656,57000
 823,44;  555,910;    3,820;    3,590;552,09000
 823,77;  425,210;   -0,910;   -0,400;426,12000
 824,09;  333,740;   -0,730;    3,470;334,47000
 824,42;  257,360;    0,380;    6,480;256,98000
 824,74;  212,130;   -3,890;   -1,380;216,02000
 825,06;  173,400;    1,990;    1,190;171,41000
 825,39;  151,160;    5,100;    5,130;146,06000
 825,71;  148,400;   -2,200;    6,440;150,60000
 826,04;  151,390;   -2,520;    2,380;153,91000
 826,36;  166,340;    5,350;    1,330;160,99000
 826,68;  184,840;   -1,770;    6,520;186,61000
 827,01;  213,880;   -2,350;    3,130;216,23000
 827,33;  228,410;    0,430;    5,530;227,98000
 827,65;  207,820;   -1,840;   -5,490;209,66000
 827,98;  188,400;   -0,550;    0,550;188,95000
 828,30;  146,870;   -1,890;    3,600;148,76000
 828,62;  113,950;    0,440;    3,190;113,51000
 828,95;   92,850;    0,370;   -1,530;92,48000
 829,27;   74,640;    4,310;    2,900;70,33000
 829,60;   63,870;    2,450;   -9,270;61,42000
 829,92;   56,190;   -4,540;    2,030;60,73000
 830,24;   54,480;   -8,700;    2,390;63,18000
 830,57;   23,640;   -2,340;    2,880;25,98000
 830,89;   35,270;   -0,580;    4,220;35,85000
 831,21;   30,370;   -1,530;    4,540;31,90000
 831,54;   29,740;    1,980;   -1,460;27,76000
 831,86;   29,190;    2,770;    7,140;26,42000
 832,18;   31,170;    4,900;    2,490;26,27000
 832,51;   40,290;    8,750;   -0,150;31,54000
 832,83;   45,520;   -8,170;    3,110;53,69000
 833,15;   59,880;    5,720;    3,970;54,16000
 833,48;   61,590;    0,890;   -1,710;60,70000
 833,80;   82,350;   -0,040;   -0,220;82,39000
 834,12;   80,720;    0,510;   -0,460;80,21000
 834,45;   82,360;    2,170;    5,760;80,19000
 834,77;   62,630;    2,270;   -0,960;60,36000
 835,09;   57,530;   -1,810;    1,700;59,34000
 835,42;   43,830;   -0,760;   10,140;44,59000
 835,74;   34,580;   -3,870;   -1,360;38,45000
 836,06;   28,620;   -2,700;    2,470;31,32000
 836,39;   21,460;   -3,310;    5,200;24,77000
 836,71;   11,710;    4,650;   -2,070; 7,06000
 837,03;   16,350;   -4,320;    0,000;20,67000
 837,36;    8,370;   -5,870;    3,080;14,24000
 837,68;   10,260;    0,180;    5,970;10,08000
 838,00;    5,890;   -3,340;   -1,360; 9,23000
 838,33;   11,460;    7,020;    4,250; 4,44000
 838,65;    5,330;   -2,480;   -2,690; 7,81000
 838,97;    5,110;    4,440;    5,140; 0,67000
 839,30;    2,910;    1,450;    0,440; 1,46000
 839,62;    9,940;    8,800;    2,150; 1,14000
 839,94;   19,240;   -1,700;   -2,980;20,94000
 840,27;   19,160;   -2,230;   -0,440;21,39000
 840,59;   17,530;   -1,100;    4,530;18,63000
 840,91;   15,480;    2,500;    2,590;12,98000
 841,24;    8,250;    1,750;    1,140; 6,50000
 841,56;   12,740;    0,970;    4,230;11,77000
 841,88;    6,710;    0,490;   -1,630; 6,22000
 842,21;    2,920;    1,030;    1,280; 1,89000
 842,53;    0,480;   -2,670;   -4,630; 3,15000
 842,85;    4,760;    3,490;    6,080; 1,27000
 843,17;   -4,720;    2,290;    4,440;-7,01000
 843,50;   -2,100;    1,100;    4,940;-3,20000
 843,82;   -7,640;    2,180;    2,600;-9,82000
 844,14;   -3,900;    6,530;    5,270;-10,43000
 844,47;   -2,120;   -1,280;    1,790;-0,84000
 844,79;   -5,960;   -2,380;    1,140;-3,58000
 845,11;   -4,270;    3,100;   -1,210;-7,37000
 845,44;   -1,200;    3,600;    7,510;-4,80000
 845,76;  -11,940;    1,880;    3,750;-13,82000
 846,08;   -9,390;   -0,410;    6,200;-8,98000
 846,40;   -6,320;    4,530;   -6,100;-10,85000
 846,73;   -1,260;    2,530;   -0,440;-3,79000
 847,05;  -15,620;    1,160;   -3,930;-16,78000
 847,37;   -6,260;    7,330;   -3,200;-13,59000
 847,70;   -3,640;   -2,740;    1,910;-0,90000
 848,02;   -5,850;    3,830;   -3,330;-9,68000
 848,34;  -13,220;    7,500;    1,210;-20,72000
 848,66;   -7,080;    1,240;   -3,620;-8,32000
 848,99;  -12,920;    5,170;    1,730;-18,09000
 849,31;   -4,100;    3,370;    6,940;-7,47000
 849,63;  -12,310;   -0,360;   11,030;-11,95000
 849,95;   -7,740;   -0,350;    4,190;-7,39000
 850,28;   -7,210;    0,920;   10,190;-8,13000
 850,60;  -12,190;    1,360;    7,070;-13,55000
 850,92;  -13,670;   -1,490;    7,530;-12,18000
 851,25;  -11,930;   -1,230;    0,310;-10,70000
 851,57;   -9,850;    4,460;    3,680;-14,31000
 851,89;   -1,750;    2,010;    1,220;-3,76000
 852,21;  -18,980;    0,490;   -0,890;-19,47000
 852,54;  -10,590;    2,610;    3,020;-13,20000
 852,86;  -10,750;    1,280;    3,860;-12,03000
 853,18;   -6,370;   -5,340;    4,090;-1,03000
 853,50;  -14,030;   -4,550;    4,840;-9,48000
 853,83;   -8,690;    5,040;   -4,430;-13,73000
 854,15;  -10,560;   -2,090;    7,480;-8,47000
 854,47;  -14,270;    5,890;    1,020;-20,16000
 854,79;  -18,070;   -0,810;   -2,600;-17,26000
 855,12;  -14,260;    2,060;   -5,380;-16,32000
 855,44;  -11,290;    1,070;   -1,860;-12,36000
 855,76;   -3,650;    2,970;   -5,690;-6,62000
 856,08;  -11,680;    3,840;    2,150;-15,52000
 856,41;   -6,510;    1,620;    4,050;-8,13000
 856,73;  -13,160;   -3,360;   -1,140;-9,80000
 857,05;   -5,930;    1,830;    5,900;-7,76000
 857,37;  -11,780;    3,590;    1,240;-15,37000
 857,70;  -11,930;    3,230;    2,220;-15,16000
 858,02;  -16,240;   -0,940;   -4,050;-15,30000
 858,34;   -5,010;    4,240;    7,220;-9,25000
 858,66;  -18,830;    0,040;   -1,720;-18,87000
 858,98;  -12,270;    0,130;    5,070;-12,40000
 859,31;  -14,860;    2,140;    2,270;-17,00000
 859,63;   -8,810;    7,480;    4,840;-16,29000
 859,95;  -17,630;   -1,110;    6,810;-16,52000
 860,27;  -11,100;    0,560;   -0,960;-11,66000
 860,60;  -12,450;   -6,660;    1,650;-5,79000
 860,92;   -8,410;    6,870;    0,130;-15,28000
 861,24;  -14,740;   -2,830;    5,340;-11,91000
 861,56;   -8,190;    3,790;    3,920;-11,98000
 861,88;  -16,670;   -2,030;    1,500;-14,64000
 862,21;  -11,150;   -2,020;    2,720;-9,13000
 862,53;  -20,210;    4,520;   -2,430;-24,73000
 862,85;   -5,510;    4,390;    4,010;-9,90000
 863,17;  -11,750;   -2,540;   -3,260;-9,21000
 863,50;  -11,030;   -0,540;   -2,870;-10,49000
 863,82;  -14,540;   -4,710;    6,340;-9,83000
 864,14;  -10,380;   -3,120;   -0,730;-7,26000
 864,46;  -21,160;   -5,990;    4,000;-15,17000
 864,78;  -16,160;    4,280;    4,580;-20,44000
 865,11;  -18,200;    0,090;    2,320;-18,29000
 865,43;  -13,240;    0,780;    6,840;-14,02000
 865,75;  -14,490;    1,390;   -3,770;-15,88000
 866,07;   -9,660;   -4,000;    7,260;-5,66000
 866,39;  -10,160;   -2,600;    3,140;-7,56000
 866,72;  -12,910;   -4,550;   -3,560;-8,36000
 867,04;  -14,530;   -4,820;    8,530;-9,71000
 867,36;   -6,630;   -6,310;    2,550;-0,32000
 867,68;   -9,630;   -3,960;    1,540;-5,67000
 868,00;  -12,290;    9,190;    6,000;-21,48000
 868,33;  -13,830;    0,150;    1,370;-13,98000
 868,65;  -11,530;    9,300;    2,270;-20,83000
 868,97;  -17,650;    1,360;   -2,340;-19,01000
 869,29;   -9,120;   -1,420;    4,240;-7,70000
 869,61;  -10,310;    1,710;   -3,760;-12,02000
 869,93;  -17,070;    2,370;    6,130;-19,44000
 870,26;  -12,670;   -0,900;    4,530;-11,77000
 870,58;  -11,650;    1,270;    7,600;-12,92000
 870,90;  -15,280;    5,060;    0,700;-20,34000
 871,22;   -4,840;   -1,290;    5,530;-3,55000
 871,54;  -17,700;    5,790;    4,880;-23,49000
 871,87;  -12,430;    1,740;    5,500;-14,17000
 872,19;  -20,550;    0,410;    4,240;-20,96000
 872,51;   -8,730;    2,820;    0,360;-11,55000
 872,83;  -15,920;    0,850;    6,040;-16,77000
 873,15;  -13,450;    5,220;    0,640;-18,67000
 873,47;  -17,550;    1,860;    4,410;-19,41000
 873,80;   -9,690;   -1,370;   -4,410;-8,32000
 874,12;  -19,160;   -2,340;    7,040;-16,82000
 874,44;   -7,600;   -0,940;    2,370;-6,66000
 874,76;  -14,650;    5,690;    5,730;-20,34000
 875,08;  -13,310;    2,860;   -0,210;-16,17000
 875,40;  -14,330;   -2,800;    0,330;-11,53000
 875,72;  -12,070;   -1,370;    4,210;-10,70000
 876,05;  -13,210;   -5,170;    5,710;-8,04000
 876,37;  -11,840;    9,180;    1,970;-21,02000
 876,69;  -19,770;    3,630;    0,080;-23,40000
 877,01;  -12,950;    3,760;    3,510;-16,71000
 877,33;  -21,120;   -6,160;    2,620;-14,96000
 877,65;  -10,670;    1,330;   -6,280;-12,00000
 877,98;  -16,620;   -2,230;    5,220;-14,39000
 878,30;  -10,320;   -2,520;    3,960;-7,80000
 878,62;  -18,140;   -3,820;    3,570;-14,32000
 878,94;  -10,120;   -2,330;    3,120;-7,79000
 879,26;   -6,520;    2,220;    0,100;-8,74000
 879,58;  -10,780;   -2,200;   -1,120;-8,58000
 879,90;  -12,780;    0,510;    4,670;-13,29000
 880,23;   -0,790;    3,940;    3,720;-4,73000
 880,55;   -5,310;    2,460;   -2,700;-7,77000
 880,87;   12,320;    0,810;   -2,250;11,51000
 881,19;   12,140;   -2,040;    2,930;14,18000
 881,51;   12,620;   -3,890;    8,020;16,51000
 881,83;    8,990;   -2,440;    4,950;11,43000
 882,15;    8,120;   10,050;    7,710;-1,93000
 882,47;    4,760;    0,200;   -1,750; 4,56000
 882,80;    0,670;    0,850;    4,700;-0,18000
 883,12;   -5,250;    5,950;    0,730;-11,20000
 883,44;   -2,280;    1,090;   -8,280;-3,37000
 883,76;   -7,290;    4,860;   27,520;-12,15000
 884,08;   -4,250;    1,700;   67,760;-5,95000
 884,40;  -12,990;    2,340;   10,540;-15,33000
 884,72;   -4,710;    1,350;    5,960;-6,06000
 885,04;  -11,920;   -6,250;   -0,700;-5,67000
 885,36;  -13,250;    6,130;    6,500;-19,38000
 885,69;  -11,140;   -3,630;   -2,140;-7,51000
 886,01;   -9,670;   -2,650;    2,640;-7,02000
 886,33;   -8,950;   -4,800;    2,230;-4,15000
 886,65;  -13,850;    0,650;    0,590;-14,50000
 886,97;  -10,150;   -0,060;    1,360;-10,09000
 887,29;   -9,460;    1,370;   -1,600;-10,83000
 887,61;  -11,800;   -7,920;   -6,170;-3,88000
 887,93;  -22,230;    5,690;    9,420;-27,92000
 888,25;  -18,220;    0,280;   -0,100;-18,50000
 888,58;   -9,140;   -0,740;   -0,580;-8,40000
 888,90;  -19,820;   -0,810;    0,290;-19,01000
 889,22;  -15,650;    2,400;   -3,700;-18,05000
 889,54;  -22,070;    0,970;    2,240;-23,04000
 889,86;  -11,290;   -1,460;   -1,530;-9,83000
 890,18;  -17,780;    3,280;    2,810;-21,06000
 890,50;  -12,810;    0,420;    6,230;-13,23000
 890,82;  -20,570;   -2,330;   -1,410;-18,24000
 891,14;  -12,090;   -4,000;   -0,390;-8,09000
 891,46;  -17,620;   -6,970;    2,810;-10,65000
 891,78;  -12,550;   -4,780;    4,600;-7,77000
 892,11;  -13,740;   -1,070;    3,310;-12,67000
 892,43;  -18,590;    0,080;    2,180;-18,67000
 892,75;  -13,440;    2,060;    4,090;-15,50000
 893,07;  -15,660;    3,750;   -0,200;-19,41000
 893,39;  -19,330;   -5,310;    3,880;-14,02000
 893,71;  -10,980;    1,930;    4,750;-12,91000
 894,03;  -10,230;   -2,130;   -1,730;-8,10000
 894,35;   -7,200;    6,440;    6,250;-13,64000
 894,67;  -14,300;   -2,070;    0,550;-12,23000
 894,99;  -17,650;   -4,600;    6,420;-13,05000
 895,31;  -19,810;    1,170;    1,610;-20,98000
 895,63;   -4,270;   -0,510;    2,070;-3,76000
 895,95;  -19,140;    0,760;    3,120;-19,90000
 896,27;  -10,460;   -1,210;    8,000;-9,25000
 896,60;  -17,880;    0,250;    1,790;-18,13000
 896,92;  -17,580;    4,120;    6,780;-21,70000
 897,24;  -17,420;    5,820;   -5,020;-23,24000
 897,56;   -7,770;    0,980;    2,770;-8,75000
 897,88;  -17,010;   -2,510;    5,030;-14,50000
 898,20;   -9,960;    0,550;    7,660;-10,51000
 898,52;  -12,860;   -2,170;    1,130;-10,69000
 898,84;  -18,210;    4,000;   -1,390;-22,21000
 899,16;  -21,360;   -3,350;    0,930;-18,01000
 899,48;  -14,300;    3,220;    1,970;-17,52000
 899,80;  -23,660;    2,840;    0,840;-26,50000
 900,12;   -6,450;    2,810;    3,030;-9,26000
 900,44;  -24,970;    6,910;    3,150;-31,88000
 900,76;  -17,950;    3,340;    5,920;-21,29000
 901,08;  -20,620;   -0,860;    7,640;-19,76000
 901,40;  -17,860;    3,180;    4,670;-21,04000
 901,72;  -16,510;    4,580;   -2,790;-21,09000
 902,04;  -21,190;   -1,560;    1,410;-19,63000
 902,36;  -19,700;   -6,790;    7,150;-12,91000
 902,68;  -17,380;    5,710;    4,780;-23,09000
 903,00;  -11,320;    1,820;   -3,810;-13,14000
 903,32;   -8,780;   -0,070;    1,670;-8,71000
 903,64;  -16,620;    2,740;    3,330;-19,36000
 903,97;  -14,090;    0,550;    5,000;-14,64000
 904,29;  -21,150;    1,970;    1,550;-23,12000
 904,61;  -16,300;   -1,820;    6,880;-14,48000
 904,93;  -17,840;   -1,390;    5,120;-16,45000
 905,25;  -11,890;    0,800;    1,860;-12,69000
 905,57;  -18,640;    2,450;    2,510;-21,09000
 905,89;  -11,070;    5,100;   -1,740;-16,17000
 906,21;  -19,690;   -1,840;    0,180;-17,85000
 906,53;   -8,750;   -8,540;   -4,260;-0,21000
 906,85;  -22,000;   -3,920;   -8,460;-18,08000
 907,17;  -14,880;    4,590;    0,820;-19,47000
 907,49;  -20,880;    0,070;    5,010;-20,95000
 907,81;  -19,520;    5,970;    2,600;-25,49000
 908,13;  -14,320;    4,070;    2,000;-18,39000
 908,45;  -14,100;   -2,060;    3,660;-12,04000
 908,77;  -26,270;   -4,580;   -1,140;-21,69000
 909,09;  -16,500;    4,770;    4,610;-21,27000
 909,41;  -23,670;   -2,670;    0,770;-21,00000
 909,73;   -9,640;    5,980;    1,290;-15,62000
 910,05;  -13,760;    5,620;    2,870;-19,38000
 910,37;  -16,630;    1,030;    7,460;-17,66000
 910,69;  -23,990;    0,690;    1,700;-24,68000
 911,01;  -15,720;    3,420;    1,770;-19,14000
 911,33;  -22,140;   -0,200;   -1,830;-21,94000
 911,65;  -16,050;    1,430;    8,470;-17,48000
 911,97;  -18,540;   -0,040;    4,010;-18,50000
 912,29;  -17,150;   -5,700;   -3,610;-11,45000
 912,61;  -21,810;   -2,090;   -4,220;-19,72000
 912,93;  -19,500;    1,780;    1,200;-21,28000
 913,25;  -17,470;   -1,780;   -4,250;-15,69000
 913,57;  -17,760;    0,820;    0,210;-18,58000
 913,89;  -18,900;   -4,740;    0,030;-14,16000
 914,21;  -16,920;    3,720;    1,840;-20,64000
 914,53;  -19,480;   -0,030;    1,920;-19,45000
 914,85;  -11,890;   -0,360;   -0,400;-11,53000
 915,17;  -15,710;   -1,380;   -1,290;-14,33000
 915,48;   -8,550;   -0,740;    4,150;-7,81000
 915,80;  -13,980;    1,210;   -3,310;-15,19000
 916,12;  -12,730;    2,290;    3,350;-15,02000
 916,44;  -13,980;   -6,830;   -5,340;-7,15000
 916,76;  -20,680;   -1,190;    2,990;-19,49000
 917,08;  -15,310;   -5,130;   -5,170;-10,18000
 917,40;  -22,410;    1,110;    1,110;-23,52000
 917,72;  -14,120;    0,250;   -5,280;-14,37000
 918,04;  -10,910;   -5,210;   -2,980;-5,70000
 918,36;  -13,700;   -4,090;   -2,880;-9,61000
 918,68;  -14,230;    6,810;    5,410;-21,04000
 919,00;  -13,930;    4,680;    1,190;-18,61000
 919,32;  -16,860;   -2,810;    1,900;-14,05000
 919,64;  -19,630;    1,400;   -3,460;-21,03000
 919,96;  -18,570;   -1,110;    1,910;-17,46000
 920,28;  -19,990;    2,940;   -3,590;-22,93000
 920,60;  -18,360;   -4,620;    4,930;-13,74000
 920,92;  -13,030;    1,300;    4,080;-14,33000
 921,24;   -7,820;    7,290;    0,130;-15,11000
 921,56;  -21,690;   -2,070;    2,520;-19,62000
 921,88;  -15,520;   -1,010;   -1,030;-14,51000
 922,20;  -22,680;   -4,300;    7,080;-18,38000
 922,52;  -21,460;   -1,680;    9,970;-19,78000
 922,83;  -24,120;    0,550;    1,080;-24,67000
 923,15;  -17,070;   -0,640;    6,100;-16,43000
 923,47;  -15,840;    3,610;    0,840;-19,45000
 923,79;   -7,370;   -2,490;    5,060;-4,88000
 924,11;  -15,870;   -6,300;   -4,570;-9,57000
 924,43;  -17,820;    2,250;   -1,790;-20,07000
 924,75;  -16,790;   -3,520;    6,740;-13,27000
 925,07;  -14,910;    3,450;    9,210;-18,36000
 925,39;  -23,340;    3,840;    3,200;-27,18000
 925,71;  -16,060;    2,850;    1,310;-18,91000
 926,03;  -20,190;    1,550;    4,700;-21,74000
 926,35;  -21,970;    4,750;    5,760;-26,72000
 926,67;  -18,090;   -5,410;    0,120;-12,68000
 926,99;  -16,430;   -2,040;    5,140;-14,39000
 927,30;  -19,500;    6,230;    4,580;-25,73000
 927,62;  -14,140;    5,230;    4,230;-19,37000
 927,94;  -20,330;   -1,470;   -8,900;-18,86000
 928,26;  -15,920;   -1,880;    3,040;-14,04000
 928,58;  -23,580;    0,550;    1,360;-24,13000
 928,90;  -16,820;    5,160;    9,150;-21,98000
 929,22;  -17,150;   -4,610;   -6,500;-12,54000
 929,54;  -10,080;   -0,500;    6,830;-9,58000
 929,86;  -17,090;    1,820;   -4,160;-18,91000
 930,18;  -14,940;   -2,990;    5,680;-11,95000
 930,50;  -25,370;    5,470;    1,000;-30,84000
 930,81;  -15,480;   -1,830;   -3,660;-13,65000
 931,13;  -19,010;   -8,020;    2,320;-10,99000
 931,45;  -19,670;   -3,290;    0,830;-16,38000
 931,77;  -17,810;   -0,410;   -0,410;-17,40000
 932,09;  -17,270;   -1,740;   -0,440;-15,53000
 932,41;  -21,510;   -0,430;    2,300;-21,08000
 932,73;  -10,700;   -0,700;   -1,930;-10,00000
 933,05;  -23,450;    0,000;    1,440;-23,45000
 933,37;  -14,800;   -2,260;    3,660;-12,54000
 933,68;  -14,140;   -3,300;    4,000;-10,84000
 934,00;  -15,750;   -1,860;   -0,180;-13,89000
 934,32;  -15,740;    6,280;    1,170;-22,02000
 934,64;  -16,660;   -1,810;    6,270;-14,85000
 934,96;  -18,690;    5,870;    7,970;-24,56000
 935,28;  -19,150;    4,940;    9,960;-24,09000
 935,60;  -17,430;   -4,640;    5,020;-12,79000
 935,92;  -15,020;    2,720;   -3,830;-17,74000
 936,24;  -18,720;    8,470;   -4,530;-27,19000
 936,55;  -13,470;   -6,080;    5,410;-7,39000
 936,87;  -15,640;   -3,580;    2,940;-12,06000
 937,19;  -14,700;    0,410;    2,540;-15,11000
 937,51;  -20,520;    1,670;    5,580;-22,19000
 937,83;  -16,580;    3,020;    7,720;-19,60000
 938,15;  -17,320;    1,330;    3,230;-18,65000
 938,47;  -22,290;    4,170;    3,770;-26,46000
 938,78;  -19,560;   -2,500;    3,280;-17,06000
 939,10;  -19,010;    4,910;    2,940;-23,92000
 939,42;  -34,870;   -5,920;   -0,240;-28,95000
 939,74;  -14,220;   -2,980;    8,320;-11,24000
 940,06;  -20,270;   -2,880;   -0,630;-17,39000
 940,38;  -18,080;   -0,280;    2,520;-17,80000
 940,70;  -24,390;    1,500;    5,220;-25,89000
 941,02;  -13,250;    6,270;   -0,160;-19,52000
 941,33;  -20,010;    2,340;    0,640;-22,35000
 941,65;  -20,650;    2,640;    4,010;-23,29000
 941,97;  -22,350;   -4,630;    6,860;-17,72000
 942,29;  -18,540;    2,550;   -2,390;-21,09000
 942,61;  -20,140;    0,490;    3,980;-20,63000
 942,93;  -15,340;   -2,020;    4,480;-13,32000
 943,24;  -26,120;    2,590;   -7,500;-28,71000
 943,56;  -14,830;    6,070;    5,150;-20,90000
 943,88;  -21,690;    2,840;   17,720;-24,53000
 944,20;  -11,470;    1,030;   -0,530;-12,50000
 944,52;  -20,240;   -6,570;    3,620;-13,67000
 944,84;  -21,370;    0,210;    5,120;-21,58000
 945,15;  -25,250;    2,080;    3,360;-27,33000
 945,47;  -24,540;   -3,570;    7,050;-20,97000
 945,79;  -25,750;   -0,140;    4,370;-25,61000
 946,11;  -18,920;    1,130;    4,410;-20,05000
 946,43;  -20,150;    5,430;    3,440;-25,58000
 946,75;  -11,810;    5,710;    0,920;-17,52000
 947,06;  -21,930;   -0,290;    5,020;-21,64000
 947,38;  -17,400;   -1,570;    1,140;-15,83000
 947,70;  -17,760;   -1,200;    0,390;-16,56000
 948,02;  -15,230;    2,540;    4,390;-17,77000
 948,34;  -24,080;    1,220;    1,470;-25,30000
 948,66;  -10,430;    2,010;    6,230;-12,44000
 948,97;  -18,990;   -4,140;    1,430;-14,85000
 949,29;  -14,700;   -0,200;    5,970;-14,50000
 949,61;  -18,260;    4,290;    6,860;-22,55000
 949,93;  -23,060;   -4,680;    2,080;-18,38000
 950,25;  -18,550;    3,500;    0,480;-22,05000
 950,56;  -15,460;    5,950;    2,230;-21,41000
 950,88;  -12,940;    3,440;    2,030;-16,38000
 951,20;  -13,160;    4,310;    5,930;-17,47000
 951,52;  -20,960;    2,320;   -1,300;-23,28000
 951,84;  -20,210;   -4,060;    7,660;-16,15000
 952,15;  -21,250;    2,450;   -6,660;-23,70000
 952,47;  -12,450;   -4,170;   26,650;-8,28000
 952,79;  -18,930;   -5,610;   70,500;-13,32000
 953,11;  -22,720;   -0,640;    4,370;-22,08000
 953,43;  -21,840;   -1,700;    4,440;-20,14000
 953,74;  -14,790;    0,360;    0,090;-15,15000
 954,06;  -22,160;   -5,800;    1,240;-16,36000
 954,38;  -18,160;    4,290;    3,520;-22,45000
 954,70;  -21,320;    1,430;   -3,320;-22,75000
 955,02;  -17,230;    0,820;    6,550;-18,05000
 955,33;  -24,710;    2,490;    0,140;-27,20000
 955,65;  -22,820;    1,840;    3,220;-24,66000
 955,97;  -17,490;    8,580;   -4,750;-26,07000
 956,29;  -17,210;   -0,810;    4,320;-16,40000
 956,60;  -22,020;   -0,080;   -1,420;-21,94000
 956,92;  -18,860;    1,830;    1,930;-20,69000
 957,24;  -19,520;    0,680;    3,920;-20,20000
 957,56;  -19,450;    0,270;   -3,610;-19,72000
 957,88;  -23,970;    7,280;    0,220;-31,25000
 958,19;  -19,960;   -2,140;    5,190;-17,82000
 958,51;  -22,610;    2,130;   -1,420;-24,74000
 958,83;  -22,340;   -3,450;    7,070;-18,89000
 959,15;  -20,220;    1,480;   -2,300;-21,70000
 959,46;  -20,760;   -6,820;    3,950;-13,94000
 959,78;  -23,230;    4,490;   -1,470;-27,72000
 960,10;  -16,540;    0,160;    9,230;-16,70000
 960,42;  -19,840;   -2,110;    1,840;-17,73000
 960,73;  -14,690;    4,900;    4,250;-19,59000
 961,05;  -19,050;    5,140;    3,320;-24,19000
 961,37;  -21,830;   -5,820;    5,640;-16,01000
 961,69;  -16,060;    0,630;   -1,680;-16,69000
 962,00;  -12,240;    3,050;    5,990;-15,29000
 962,32;  -22,380;    0,580;   -3,410;-22,96000
 962,64;  -19,390;   -1,380;    0,740;-18,01000
 962,96;  -18,690;    1,000;    6,930;-19,69000
 963,27;  -19,350;    5,710;    5,840;-25,06000
 963,59;  -21,650;    2,940;    0,590;-24,59000
 963,91;  -21,960;    3,560;    2,400;-25,52000
 964,23;  -16,120;    2,830;    1,350;-18,95000
 964,54;  -20,920;   -2,860;    1,850;-18,06000
 964,86;  -13,860;   -3,030;    1,280;-10,83000
 965,18;  -19,270;   -0,970;   -0,490;-18,30000
 965,50;  -19,690;    1,080;   10,100;-20,77000
 965,81;  -21,140;    0,660;    1,490;-21,80000
 966,13;  -25,910;    0,940;    1,680;-26,85000
 966,45;  -15,400;   -2,860;    6,590;-12,54000
 966,77;  -18,800;   -2,140;   -2,750;-16,66000
 967,08;  -20,210;    5,830;    6,030;-26,04000
 967,40;  -22,990;    0,210;    3,480;-23,20000
 967,72;  -11,970;    2,400;    8,100;-14,37000
 968,03;  -18,300;   -1,680;   -0,820;-16,62000
 968,35;  -13,200;    1,000;    4,100;-14,20000
 968,67;  -15,580;    2,270;   -1,720;-17,85000
 968,99;  -18,760;    0,700;    5,390;-19,46000
 969,30;  -26,200;    3,980;    1,920;-30,18000
 969,62;  -22,440;    0,860;    3,540;-23,30000
 969,94;  -23,120;    0,030;    3,150;-23,15000
 970,25;  -16,500;   -2,740;    2,710;-13,76000
 970,57;  -18,650;    4,100;    6,400;-22,75000
 970,89;  -11,900;   -6,190;    0,790;-5,71000
 971,21;  -21,000;   -0,540;    3,880;-20,46000
 971,52;   -9,200;    3,490;   -0,440;-12,69000
 971,84;  -28,810;   -2,950;    1,850;-25,86000
 972,16;  -18,300;   -0,310;    5,220;-17,99000
 972,47;  -25,280;   -1,920;    6,420;-23,36000
 972,79;  -21,850;    4,120;    7,170;-25,97000
 973,11;  -23,710;   -0,830;    0,020;-22,88000
 973,42;  -14,360;   -4,930;    5,390;-9,43000
 973,74;  -21,730;   -2,340;   -3,010;-19,39000
 974,06;  -10,010;    1,400;    0,150;-11,41000
 974,38;  -16,800;    6,450;    1,500;-23,25000
 974,69;  -13,220;    6,830;    7,170;-20,05000
 975,01;  -21,940;    2,930;   -1,840;-24,87000
 975,33;  -14,000;    3,080;    3,500;-17,08000
 975,64;  -16,900;    4,850;    2,850;-21,75000
 975,96;  -14,290;    0,950;    8,230;-15,24000
 976,28;  -24,290;  -10,620;    1,250;-13,67000
 976,59;   -9,290;    1,360;    3,380;-10,65000
 976,91;  -18,910;   -0,490;    3,050;-18,42000
 977,23;  -16,770;    3,490;    2,010;-20,26000
 977,54;  -22,640;    0,060;   -1,890;-22,70000
 977,86;  -15,370;   -2,150;    4,900;-13,22000
 978,18;  -17,850;   -0,240;    6,000;-17,61000
 978,49;  -14,880;    0,960;    3,760;-15,84000
 978,81;  -22,340;    0,840;    1,210;-23,18000
 979,13;   -9,830;    1,540;    4,900;-11,37000
 979,44;  -16,870;    0,630;    3,830;-17,50000
 979,76;  -15,890;   -2,540;    2,860;-13,35000
 980,08;  -19,700;   -1,640;    3,250;-18,06000
 980,39;  -15,030;    1,340;    2,370;-16,37000
 980,71;  -20,830;    0,640;   -0,310;-21,47000
 981,03;  -12,890;    1,680;    9,190;-14,57000
 981,34;  -20,490;    0,020;    3,500;-20,51000
 981,66;  -16,920;    1,040;    7,280;-17,96000
 981,98;  -26,400;   -7,490;   -1,460;-18,91000
 982,29;  -18,830;   -5,760;    1,360;-13,07000
 982,61;  -20,250;    0,920;    1,990;-21,17000
 982,93;  -14,140;    2,410;    2,550;-16,55000
 983,24;  -24,140;   -5,300;    4,800;-18,84000
 983,56;  -15,860;   -4,260;    2,590;-11,60000
 983,88;  -19,250;   -0,460;    2,770;-18,79000
 984,19;  -20,170;   -1,360;    3,940;-18,81000
 984,51;  -22,280;   -4,180;    7,800;-18,10000
 984,83;  -15,410;   -2,050;   -1,690;-13,36000
 985,14;  -16,630;    1,630;    6,820;-18,26000
 985,46;  -20,890;    0,910;    1,310;-21,80000
 985,77;  -20,700;    0,130;    0,860;-20,83000
 986,09;  -15,010;   -3,190;    6,720;-11,82000
 986,41;  -25,840;    3,950;    2,920;-29,79000
 986,72;  -12,900;   -2,590;    2,370;-10,31000
 987,04;  -18,660;    3,160;   -1,380;-21,82000
 987,36;  -16,530;    8,940;    3,860;-25,47000
 987,67;  -18,450;   -2,880;    0,400;-15,57000
 987,99;  -17,480;    3,650;    5,640;-21,13000
 988,30;  -22,370;    1,200;    0,440;-23,57000
 988,62;  -17,680;   -3,910;    3,210;-13,77000
 988,94;  -15,700;   -3,890;    2,220;-11,81000
 989,25;  -12,490;   -1,350;    2,400;-11,14000
 989,57;  -19,500;    1,460;    1,860;-20,96000
 989,89;  -18,450;   -1,650;    1,690;-16,80000
 990,20;  -25,900;   -1,720;    4,810;-24,18000
 990,52;  -20,160;   -7,990;    0,240;-12,17000
 990,83;  -18,920;    0,650;    2,090;-19,57000
 991,15;  -23,860;   -2,510;   -3,520;-21,35000
 991,47;  -17,630;    0,660;    4,000;-18,29000
 991,78;  -19,950;    2,280;    5,280;-22,23000
 992,10;  -20,830;    1,310;   -4,070;-22,14000
 992,41;  -24,080;    0,500;   -3,110;-24,58000
 992,73;  -21,020;    5,020;    0,840;-26,04000
 993,05;  -19,330;    7,830;    1,940;-27,16000
 993,36;  -17,420;    0,240;   -3,720;-17,66000
 993,68;  -16,830;   -0,410;   -0,870;-16,42000
 993,99;  -17,800;    0,070;    1,310;-17,87000
 994,31;  -10,020;    0,680;    2,000;-10,70000
 994,63;  -17,840;   -2,470;   -0,340;-15,37000
 994,94;  -19,090;    2,800;    8,160;-21,89000
 995,26;  -13,950;   -2,760;   -1,570;-11,19000
 995,57;  -19,660;   -6,960;    0,710;-12,70000
 995,89;  -18,790;    7,260;   -2,830;-26,05000
 996,21;  -15,470;    1,440;   -1,460;-16,91000
 996,52;  -25,150;   -2,830;    0,900;-22,32000
 996,84;  -15,100;    6,430;    2,890;-21,53000
 997,15;  -20,560;   -1,270;   -0,520;-19,29000
 997,47;  -12,170;    0,300;    8,460;-12,47000
 997,78;  -14,580;    0,340;    0,730;-14,92000
 998,10;  -15,310;   -1,820;    3,890;-13,49000
 998,42;  -28,260;    0,770;    0,670;-29,03000
 998,73;  -18,600;    0,200;    7,070;-18,80000
 999,05;  -25,560;   -3,600;    5,320;-21,96000
 999,36;  -19,840;   -1,030;    1,530;-18,81000
 999,68;  -18,560;    5,680;    0,710;-24,24000
 999,99;  -16,430;    5,510;    3,130;-21,94000
1000,31;  -20,230;   -2,860;   -1,420;-17,37000
1000,63;  -13,140;   -0,660;    2,310;-12,48000
1000,94;  -15,200;   -1,280;    7,480;-13,92000
1001,26;  -16,770;    1,590;    2,220;-18,36000
1001,57;  -21,460;   -0,080;    6,500;-21,38000
1001,89;  -19,820;    6,440;    3,430;-26,26000
1002,20;  -20,940;   -1,060;   -1,460;-19,88000
1002,52;  -21,050;    1,060;    4,410;-22,11000
1002,83;  -18,150;   -3,120;    0,040;-15,03000
1003,15;  -15,670;    5,770;    4,330;-21,44000
1003,47;  -16,680;    2,430;    1,340;-19,11000
1003,78;  -20,760;   -3,380;   -3,780;-17,38000
1004,10;  -16,060;    0,290;    5,010;-16,35000
1004,41;  -13,750;   -2,000;    1,980;-11,75000
1004,73;  -20,690;    0,550;   -1,970;-21,24000
1005,04;  -17,020;    1,440;    3,890;-18,46000
1005,36;  -18,100;   -0,930;    6,000;-17,17000
1005,67;  -17,090;    1,170;    5,080;-18,26000
1005,99;  -18,740;   -0,400;    3,780;-18,34000
1006,30;  -20,070;   -4,490;    2,660;-15,58000
1006,62;  -21,670;   -5,980;   -6,770;-15,69000
1006,93;  -19,200;   -0,040;    1,250;-19,16000
1007,25;  -20,220;   -1,650;    1,420;-18,57000
1007,57;  -25,410;    0,470;   -0,740;-25,88000
1007,88;  -20,920;   -7,850;   -3,580;-13,07000
1008,20;  -14,390;   -0,260;    5,380;-14,13000
1008,51;  -18,010;   -0,500;    1,200;-17,51000
1008,83;  -20,650;   -4,510;    5,790;-16,14000
1009,14;  -15,860;    0,070;   -2,030;-15,93000
1009,46;  -20,960;    3,010;    4,690;-23,97000
1009,77;  -24,620;   -0,900;   -7,260;-23,72000
1010,09;  -14,660;    0,320;    3,570;-14,98000
1010,40;  -20,060;    4,010;   -1,220;-24,07000
1010,72;  -20,320;    0,210;    2,660;-20,53000
1011,03;  -21,320;    0,360;    0,950;-21,68000
1011,35;  -16,400;    5,180;    4,240;-21,58000
1011,66;  -15,920;    3,370;    1,840;-19,29000
1011,98;  -18,690;    1,620;   -0,380;-20,31000
1012,29;  -10,920;   -0,030;    2,490;-10,89000
1012,61;  -16,450;    1,510;   10,310;-17,96000
1012,92;  -17,170;   -1,700;   -1,120;-15,47000
1013,24;  -17,540;   -4,050;    6,920;-13,49000
1013,55;  -15,090;   -1,410;   -0,760;-13,68000
1013,87;  -30,130;   -1,230;    3,010;-28,90000
1014,18;  -23,160;    1,480;    7,310;-24,64000
1014,50;  -13,510;    4,760;    1,350;-18,27000
1014,81;  -15,830;    0,010;    1,440;-15,84000
1015,13;  -18,940;   -1,120;    4,660;-17,82000
1015,44;  -25,870;   -0,430;    0,190;-25,44000
1015,76;  -17,300;    1,430;    3,170;-18,73000
1016,07;  -12,920;    3,590;   -0,740;-16,51000
1016,39;  -22,500;   -3,640;    0,450;-18,86000
1016,70;  -16,280;    4,910;    2,240;-21,19000
1017,02;  -10,490;   -4,580;    4,580;-5,91000
1017,33;  -17,010;    3,900;   11,760;-20,91000
1017,65;  -12,530;    0,220;    4,700;-12,75000
1017,96;  -17,570;    0,800;    7,610;-18,37000
1018,28;   -9,510;    0,460;    7,260;-9,97000
1018,59;  -21,450;    2,960;   -0,250;-24,41000
1018,90;  -17,100;    5,130;    2,730;-22,23000
1019,22;  -12,930;   -0,710;   -1,080;-12,22000
1019,53;  -16,700;    1,410;    7,050;-18,11000
1019,85;  -19,750;    2,160;    3,410;-21,91000
1020,16;  -14,310;    0,190;   -2,870;-14,50000
1020,48;  -23,930;   -2,160;   26,180;-21,77000
1020,79;  -12,850;    3,760;   60,410;-16,61000
1021,11;  -13,070;   -2,470;    5,060;-10,60000
1021,42;  -19,430;    7,240;    5,330;-26,67000
1021,74;  -17,170;   -3,900;    4,440;-13,27000
1022,05;  -13,810;   -2,710;    6,610;-11,10000
1022,37;  -23,650;   -0,470;    0,670;-23,18000
1022,68;  -13,560;    3,590;    1,390;-17,15000
1022,99;  -18,870;   -5,050;    6,190;-13,82000
1023,31;  -20,180;   -1,460;   -1,520;-18,72000
1023,62;  -18,710;   -5,260;    0,500;-13,45000
1023,94;  -10,160;    2,360;   -2,080;-12,52000
1024,25;  -10,880;    1,060;   -2,040;-11,94000
1024,57;  -14,300;    2,580;    4,320;-16,88000
1024,88;  -21,650;   -2,140;    2,020;-19,51000
1025,20;  -13,430;   -1,290;    6,700;-12,14000
1025,51;  -16,470;    0,920;   -0,060;-17,39000
1025,82;  -12,560;    6,760;   -2,000;-19,32000
1026,14;  -17,210;    1,810;   -1,370;-19,02000
1026,45;  -17,400;   -3,200;   -2,760;-14,20000
1026,77;  -15,040;   -0,810;    2,750;-14,23000
1027,08;  -16,370;    3,170;    8,290;-19,54000
1027,40;  -22,640;   -1,690;   -2,740;-20,95000
1027,71;  -12,470;    3,970;    6,220;-16,44000
1028,02;  -10,310;    4,500;    1,380;-14,81000
1028,34;  -19,810;   -2,590;    9,530;-17,22000
1028,65;  -14,710;    2,160;   -4,500;-16,87000
1028,97;  -11,190;    2,630;    6,610;-13,82000
1029,28;  -14,710;   -0,610;    3,430;-14,10000
1029,60;  -12,840;    0,280;    0,310;-13,12000
1029,91;  -18,830;   -0,320;   -0,630;-18,51000
1030,22;  -14,400;    6,820;    0,930;-21,22000
1030,54;  -20,140;    2,830;   -0,540;-22,97000
1030,85;  -17,240;    4,760;    0,890;-22,00000
1031,17;  -16,630;   -6,980;    5,870;-9,65000
1031,48;  -13,180;    5,890;    1,980;-19,07000
1031,79;  -16,940;   -1,980;   -1,570;-14,96000
1032,11;   -8,720;   -1,800;    1,520;-6,92000
1032,42;  -20,880;    5,260;    5,190;-26,14000
1032,74;  -20,740;    5,150;    2,420;-25,89000
1033,05;  -22,970;   -1,420;    2,460;-21,55000
1033,36;  -17,940;   10,830;    7,720;-28,77000
1033,68;  -18,190;   -3,030;    4,620;-15,16000
1033,99;  -13,010;    2,290;    0,660;-15,30000
1034,31;  -22,270;    3,550;    7,430;-25,82000
1034,62;  -10,700;    1,090;    5,230;-11,79000
1034,93;  -20,290;   -2,430;    2,760;-17,86000
1035,25;  -15,060;   -1,530;   -2,310;-13,53000
1035,56;  -27,870;   -0,210;    2,050;-27,66000
1035,88;   -9,950;   -4,080;   12,450;-5,87000
1036,19;  -14,470;   -1,820;   -0,290;-12,65000
1036,50;  -18,660;    8,470;    8,070;-27,13000
1036,82;  -19,010;   -0,730;    2,310;-18,28000
1037,13;  -10,360;    1,620;    5,200;-11,98000
1037,44;  -19,570;   -1,990;    2,980;-17,58000
1037,76;  -22,660;    1,710;    9,840;-24,37000
1038,07;  -19,960;   -3,080;    2,210;-16,88000
1038,39;  -12,950;   -1,070;    5,820;-11,88000
1038,70;  -14,990;   -2,740;    3,330;-12,25000
1039,01;  -10,980;    1,230;    0,130;-12,21000
1039,33;  -19,390;   -2,790;    5,720;-16,60000
1039,64;  -14,930;    1,720;    9,130;-16,65000
1039,95;  -15,820;   -3,600;    4,470;-12,22000
1040,27;   -8,150;    4,360;    2,830;-12,51000
1040,58;  -12,800;    2,500;    7,810;-15,30000
1040,89;  -15,590;    3,300;   -2,340;-18,89000
1041,21;  -19,380;   -0,860;   -1,780;-18,52000
1041,52;  -22,480;    0,030;    4,210;-22,51000
1041,83;  -23,170;   -0,700;    2,130;-22,47000
1042,15;  -15,340;    0,850;    6,540;-16,19000
1042,46;  -21,840;    2,800;   -2,990;-24,64000
1042,78;  -20,570;    2,340;   -3,930;-22,91000
1043,09;  -18,320;   -0,670;    0,590;-17,65000
1043,40;  -21,640;    5,630;    1,700;-27,27000
1043,72;  -17,150;   -6,010;    0,370;-11,14000
1044,03;  -14,680;    1,830;   -0,910;-16,51000
1044,34;  -22,280;    4,100;    1,660;-26,38000
1044,66;  -11,540;   -2,390;    1,050;-9,15000
1044,97;  -23,250;    5,400;    2,440;-28,65000
1045,28;  -17,190;   -0,930;    1,720;-16,26000
1045,60;  -20,700;   -4,150;    5,200;-16,55000
1045,91;  -15,450;   -3,240;    3,540;-12,21000
1046,22;  -10,790;   -3,960;    2,790;-6,83000
1046,54;  -14,650;    7,170;    0,440;-21,82000
1046,85;  -15,670;   -4,630;    2,550;-11,04000
1047,16;  -21,030;    4,640;   -0,030;-25,67000
1047,48;  -22,240;   -2,080;    4,270;-20,16000
1047,79;  -22,640;    4,690;   10,710;-27,33000
1048,10;  -15,420;    2,640;    4,820;-18,06000
1048,42;  -16,370;    3,060;    5,900;-19,43000
1048,73;  -21,530;    5,680;    1,280;-27,21000
1049,04;  -19,090;    3,960;    9,780;-23,05000
1049,35;  -21,750;   -4,990;    4,990;-16,76000
1049,67;  -16,570;    2,750;    2,720;-19,32000
1049,98;  -19,530;   -5,640;    2,540;-13,89000
1050,29;  -16,570;   -1,900;    1,410;-14,67000
1050,61;  -24,830;   -1,090;    8,130;-23,74000
1050,92;  -20,750;    3,890;    4,340;-24,64000
1051,23;  -19,210;    5,190;    0,190;-24,40000
1051,55;  -16,300;    4,650;   -0,340;-20,95000
1051,86;  -24,500;    6,210;   -1,240;-30,71000
1052,17;  -11,520;    2,060;    4,800;-13,58000
1052,49;  -12,870;   -0,220;    1,340;-12,65000
1052,80;  -19,870;   -0,990;   -1,480;-18,88000
1053,11;  -28,830;   -0,230;    3,140;-28,60000
1053,42;  -14,880;    5,050;    3,700;-19,93000
1053,74;  -20,070;    1,210;    2,760;-21,28000
1054,05;  -15,370;    0,290;   -4,820;-15,66000
1054,36;  -19,640;    2,050;    5,420;-21,69000
1054,68;  -16,440;   -2,750;   -4,600;-13,69000
1054,99;  -23,700;   -3,700;    1,680;-20,00000
1055,30;   -7,840;    4,450;    3,390;-12,29000
1055,61;  -15,760;   -4,310;    2,920;-11,45000
1055,93;  -13,480;   -8,110;    1,720;-5,37000
1056,24;  -23,410;    4,950;    4,360;-28,36000
1056,55;  -18,570;    5,260;   -1,540;-23,83000
1056,87;  -25,690;   -2,540;    1,730;-23,15000
1057,18;  -15,110;    2,560;    2,860;-17,67000
1057,49;  -15,830;   -4,640;   -0,240;-11,19000
1057,80;  -13,810;    3,940;    6,020;-17,75000
1058,12;  -21,130;    1,410;    0,150;-22,54000
1058,43;  -16,800;    4,770;    2,730;-21,57000
1058,74;  -23,580;    5,660;    4,670;-29,24000
1059,05;  -16,800;    3,900;    1,250;-20,70000
1059,37;  -24,680;    4,510;   -5,950;-29,19000
1059,68;  -22,400;    3,610;    4,860;-26,01000
1059,99;  -14,860;    1,530;    0,230;-16,39000
1060,30;  -16,920;   -3,820;    3,520;-13,10000
1060,62;  -17,750;   -3,840;   -2,970;-13,91000
1060,93;  -13,590;   -5,050;   -2,820;-8,54000
1061,24;  -22,790;   -5,380;    4,750;-17,41000
1061,55;  -14,820;    4,250;    0,120;-19,07000
1061,87;  -24,180;   -1,870;    4,890;-22,31000
1062,18;  -12,010;    1,170;    7,090;-13,18000
1062,49;  -12,870;   -2,300;    2,190;-10,57000
1062,80;  -14,430;    4,320;    5,760;-18,75000
1063,12;  -19,700;   -0,180;   -2,620;-19,52000
1063,43;  -12,760;   -1,880;    7,540;-10,88000
1063,74;  -19,940;    0,790;    6,880;-20,73000
1064,05;   -8,650;    6,300;   12,260;-14,95000
1064,37;  -24,270;   -5,980;    2,210;-18,29000
1064,68;  -14,370;    2,070;   -0,210;-16,44000
1064,99;  -22,570;   -0,270;   -3,100;-22,30000
1065,30;  -21,800;    8,020;    3,490;-29,82000
1065,62;  -15,580;   -1,160;    0,580;-14,42000
1065,93;  -16,940;    3,000;    2,360;-19,94000
1066,24;  -22,770;    2,740;    0,570;-25,51000
1066,55;  -13,270;    3,660;    6,170;-16,93000
1066,86;  -18,150;   -2,710;    1,430;-15,44000
1067,18;  -18,210;    3,140;    0,150;-21,35000
1067,49;  -17,260;    4,070;    0,560;-21,33000
1067,80;  -22,020;    5,850;    5,750;-27,87000
1068,11;  -19,720;    2,620;    4,740;-22,34000
1068,43;  -13,920;   -2,960;   -0,230;-10,96000
1068,74;  -18,660;   -0,020;    3,680;-18,64000
1069,05;  -16,050;    3,860;    4,420;-19,91000
1069,36;  -22,660;   -2,730;   -0,020;-19,93000
1069,67;  -16,800;    0,140;    2,850;-16,94000
1069,99;  -23,840;   -1,030;    4,080;-22,81000
1070,30;  -21,100;   -0,990;    1,950;-20,11000
1070,61;  -15,680;   -1,570;    6,290;-14,11000
1070,92;  -19,100;    2,490;    2,300;-21,59000
1071,23;  -18,440;    3,480;    2,360;-21,92000
1071,55;  -18,840;    5,270;    6,030;-24,11000
1071,86;  -14,190;    0,590;   11,970;-14,78000
1072,17;  -16,400;    3,010;    1,080;-19,41000
1072,48;  -20,340;    5,350;    1,960;-25,69000
1072,79;  -20,820;   -2,920;    6,500;-17,90000
1073,11;  -21,820;    2,980;   -2,750;-24,80000
1073,42;  -13,540;   -0,150;    4,130;-13,39000
1073,73;  -25,500;   -1,310;   -3,000;-24,19000
1074,04;  -17,090;    2,170;    0,380;-19,26000
1074,35;  -23,020;   -0,730;   -2,880;-22,29000
1074,67;  -12,900;    2,150;    2,240;-15,05000
1074,98;  -22,600;   -0,620;   -8,040;-21,98000
1075,29;  -17,150;   -0,160;    5,250;-16,99000
1075,60;  -19,050;    6,150;   -5,520;-25,20000
1075,91;  -13,980;    3,750;    5,620;-17,73000
1076,22;  -20,610;    1,910;   -0,620;-22,52000
1076,54;  -17,690;    0,690;    7,550;-18,38000
1076,85;  -15,320;   -0,790;   -1,390;-14,53000
1077,16;  -18,770;    5,710;    1,310;-24,48000
1077,47;  -17,770;    2,930;    2,610;-20,70000
1077,78;  -15,970;   -0,790;    4,900;-15,18000
1078,09;  -14,670;    5,310;    2,500;-19,98000
1078,41;   -7,690;    3,690;   -0,680;-11,38000
1078,72;  -19,320;   -2,700;   -0,660;-16,62000
1079,03;  -14,370;   -5,800;    5,940;-8,57000
1079,34;  -13,990;    0,220;    3,580;-14,21000
1079,65;  -18,720;    1,600;    5,850;-20,32000
1079,96;  -17,290;   -2,690;    6,520;-14,60000
1080,28;  -22,010;    0,670;   -3,690;-22,68000
1080,59;  -14,690;   -0,830;   -2,370;-13,86000
1080,90;  -17,140;    6,660;    4,310;-23,80000
1081,21;  -11,930;    2,800;    5,260;-14,73000
1081,52;  -21,010;    2,210;    3,780;-23,22000
1081,83;  -22,420;   -2,010;    0,350;-20,41000
1082,14;  -18,980;    2,260;   -1,750;-21,24000
1082,46;  -21,180;    2,620;   -0,730;-23,80000
1082,77;  -15,690;   -3,060;    4,680;-12,63000
1083,08;  -18,730;   -2,150;   -4,540;-16,58000
1083,39;  -18,430;   -2,770;    7,470;-15,66000
1083,70;  -21,410;    1,480;    7,780;-22,89000
1084,01;  -12,990;    0,350;    6,430;-13,34000
1084,32;  -18,470;    5,000;   -0,350;-23,47000
1084,63;  -21,640;    1,590;    6,590;-23,23000
1084,95;  -15,890;   -1,220;   -0,160;-14,67000
1085,26;  -15,510;   -4,850;   -2,690;-10,66000
1085,57;  -18,220;   -0,470;   -3,770;-17,75000
1085,88;  -17,950;    4,460;    6,320;-22,41000
1086,19;  -14,270;   -1,210;   -6,030;-13,06000
1086,50;  -12,950;   -2,110;    1,510;-10,84000
1086,81;  -21,850;   -0,550;   -2,890;-21,30000
1087,12;  -15,670;    3,500;    5,810;-19,17000
1087,44;  -21,660;    3,150;  -11,430;-24,81000
1087,75;  -13,440;    5,180;   35,730;-18,62000
1088,06;  -16,250;    4,350;   58,240;-20,60000
1088,37;  -14,490;    1,750;    0,810;-16,24000
1088,68;  -23,030;   -4,350;    4,570;-18,68000
1088,99;  -21,060;    1,050;    0,690;-22,11000
1089,30;  -18,740;   -0,330;   -4,260;-18,41000
1089,61;  -18,380;   -0,840;    2,990;-17,54000
1089,92;  -18,960;    0,250;    2,260;-19,21000
1090,23;  -18,660;    2,900;    7,860;-21,56000
1090,55;  -18,330;    2,980;    1,670;-21,31000
1090,86;  -15,250;   -2,350;    6,130;-12,90000
1091,17;  -19,110;    0,490;   -5,070;-19,60000
1091,48;  -10,220;   -0,740;    8,390;-9,48000
1091,79;  -15,190;   -0,170;   -0,520;-15,02000
1092,10;  -18,130;    0,580;    7,400;-18,71000
1092,41;  -19,030;    4,040;    6,290;-23,07000
1092,72;  -17,490;    5,710;    2,520;-23,20000
1093,03;  -21,230;    6,200;    0,650;-27,43000
1093,34;  -13,100;   -0,790;    4,380;-12,31000
1093,65;  -23,490;    1,250;    6,220;-24,74000
1093,97;  -17,170;   -0,180;    4,560;-16,99000
1094,28;  -15,420;   -1,600;    1,570;-13,82000
1094,59;  -17,520;    3,900;    2,380;-21,42000
1094,90;  -14,030;    2,630;    5,980;-16,66000
1095,21;  -20,220;    0,030;    1,980;-20,25000
1095,52;  -17,260;    1,090;   13,650;-18,35000
1095,83;  -19,540;    0,070;   -5,870;-19,61000
1096,14;  -18,200;    0,740;    5,280;-18,94000
1096,45;  -13,300;    7,160;    2,420;-20,46000
1096,76;  -11,330;   -2,060;   -1,260;-9,27000
1097,07;  -13,890;   -1,820;   -1,100;-12,07000
1097,38;  -15,380;    3,200;   -3,730;-18,58000
1097,69;  -16,400;   -4,050;   -0,290;-12,35000
1098,00;  -21,700;    0,450;   -4,840;-22,15000
1098,31;  -17,020;   12,670;    3,260;-29,69000
1098,63;  -18,770;   -6,560;   -0,200;-12,21000
1098,94;  -13,670;   -1,960;    4,810;-11,71000
1099,25;  -15,080;   -5,000;   -2,790;-10,08000
1099,56;  -20,270;    1,490;    7,060;-21,76000
1099,87;  -21,270;   -8,240;   -1,420;-13,03000
1100,18;  -10,060;    3,400;    8,150;-13,46000

